Timestamp,Accel_X,Accel_Y,Accel_Z,Roll,Pitch,Yaw,RM11,RM12,RM13,RM21,RM22,RM23,RM31,RM32,RM33,GravAcc_X,GravAcc_Y,GravAcc_Z,UserAcc_X,UserAcc_Y,UserAcc_Z,RotRate_X,RotRate_Y,RotRate_Z,MagHeading,TrueHeading,HeadingAccuracy,Course,Speed
482149027.400846,0.007919,-0.012848,-1.069992,0.009598,0.009015,0.003691,0.999947,0.003777,-0.009598,-0.003691,0.999953,0.009015,0.009632,-0.008979,0.999913,0.009598,-0.009015,-0.999913,-0.000733,-0.001834,-0.068126,-0.003777,0.003478,0.001818,346.327667,350.790466,-1.000000,0.000000,0.000000
482149027.434039,0.126831,-0.014069,-1.058365,0.009598,0.009015,0.003691,0.999947,0.003777,-0.009598,-0.003691,0.999953,0.009015,0.009632,-0.008979,0.999913,0.009598,-0.009015,-0.999913,-0.000733,-0.001834,-0.068126,-0.003777,0.003478,0.001818,346.327667,350.790466,-1.000000,0.000000,0.000000
482149027.437019,0.126831,-0.014069,-1.058365,0.009598,0.009015,0.003691,0.999947,0.003777,-0.009598,-0.003691,0.999953,0.009015,0.009632,-0.008979,0.999913,0.009598,-0.009015,-0.999913,-0.000733,-0.001834,-0.068126,-0.003777,0.003478,0.001818,346.327667,350.790466,-1.000000,0.000000,0.000000
482149027.447915,0.098801,-0.000687,-1.065399,0.009598,0.009015,0.003691,0.999947,0.003777,-0.009598,-0.003691,0.999953,0.009015,0.009632,-0.008979,0.999913,0.009598,-0.009015,-0.999913,-0.000733,-0.001834,-0.068126,-0.003777,0.003478,0.001818,346.327667,350.790466,-1.000000,0.000000,0.000000
482149027.459449,0.038361,-0.003448,-1.061935,0.009598,0.009015,0.003691,0.999947,0.003777,-0.009598,-0.003691,0.999953,0.009015,0.009632,-0.008979,0.999913,0.009598,-0.009015,-0.999913,-0.000733,-0.001834,-0.068126,-0.003777,0.003478,0.001818,346.327667,350.790466,-1.000000,0.000000,0.000000
482149027.467723,-0.001083,-0.012573,-1.056366,0.009598,0.009015,0.003691,0.999947,0.003777,-0.009598,-0.003691,0.999953,0.009015,0.009632,-0.008979,0.999913,0.009598,-0.009015,-0.999913,-0.000733,-0.001834,-0.068126,-0.003777,0.003478,0.001818,346.327667,350.790466,-1.000000,0.000000,0.000000
482149027.477400,-0.130051,-0.006149,-1.064133,0.009598,0.009015,0.003691,0.999947,0.003777,-0.009598,-0.003691,0.999953,0.009015,0.009632,-0.008979,0.999913,0.009598,-0.009015,-0.999913,-0.000733,-0.001834,-0.068126,-0.003777,0.003478,0.001818,346.327667,350.790466,-1.000000,0.000000,0.000000
482149027.489528,-0.124008,-0.016098,-1.046463,0.009598,0.009015,0.003691,0.999947,0.003777,-0.009598,-0.003691,0.999953,0.009015,0.009632,-0.008979,0.999913,0.009598,-0.009015,-0.999913,-0.000733,-0.001834,-0.068126,-0.003777,0.003478,0.001818,346.327667,350.790466,-1.000000,0.000000,0.000000
482149027.497421,0.016647,-0.005051,-1.066986,0.009598,0.009015,0.003691,0.999947,0.003777,-0.009598,-0.003691,0.999953,0.009015,0.009632,-0.008979,0.999913,0.009598,-0.009015,-0.999913,-0.000733,-0.001834,-0.068126,-0.003777,0.003478,0.001818,346.327667,350.790466,-1.000000,0.000000,0.000000
482149027.511057,-0.033783,-0.012924,-1.055603,0.009598,0.009015,0.003691,0.999947,0.003777,-0.009598,-0.003691,0.999953,0.009015,0.009632,-0.008979,0.999913,0.009598,-0.009015,-0.999913,-0.000733,-0.001834,-0.068126,-0.003777,0.003478,0.001818,346.327667,350.790466,-1.000000,0.000000,0.000000
482149027.517632,-0.033783,-0.012924,-1.055603,0.009598,0.009015,0.003691,0.999947,0.003777,-0.009598,-0.003691,0.999953,0.009015,0.009632,-0.008979,0.999913,0.009598,-0.009015,-0.999913,-0.000733,-0.001834,-0.068126,-0.003777,0.003478,0.001818,346.327667,350.790466,-1.000000,0.000000,0.000000
482149027.527942,-0.027100,-0.002182,-1.059464,0.009598,0.009015,0.003691,0.999947,0.003777,-0.009598,-0.003691,0.999953,0.009015,0.009632,-0.008979,0.999913,0.009598,-0.009015,-0.999913,-0.000733,-0.001834,-0.068126,-0.003777,0.003478,0.001818,346.327667,350.790466,-1.000000,0.000000,0.000000
482149027.537894,-0.049881,-0.001770,-1.063538,0.009598,0.009015,0.003691,0.999947,0.003777,-0.009598,-0.003691,0.999953,0.009015,0.009632,-0.008979,0.999913,0.009598,-0.009015,-0.999913,-0.000733,-0.001834,-0.068126,-0.003777,0.003478,0.001818,346.327667,350.790466,-1.000000,0.000000,0.000000
482149027.547245,-0.022949,-0.007248,-1.065323,0.009598,0.009015,0.003691,0.999947,0.003777,-0.009598,-0.003691,0.999953,0.009015,0.009632,-0.008979,0.999913,0.009598,-0.009015,-0.999913,-0.000733,-0.001834,-0.068126,-0.003777,0.003478,0.001818,346.327667,350.790466,-1.000000,0.000000,0.000000
482149027.559340,-0.024002,-0.006226,-1.062378,0.009598,0.009015,0.003691,0.999947,0.003777,-0.009598,-0.003691,0.999953,0.009015,0.009632,-0.008979,0.999913,0.009598,-0.009015,-0.999913,-0.000733,-0.001834,-0.068126,-0.003777,0.003478,0.001818,346.327667,350.790466,-1.000000,0.000000,0.000000
482149027.572336,0.050354,-0.006668,-1.062805,0.009598,0.009015,0.003691,0.999947,0.003777,-0.009598,-0.003691,0.999953,0.009015,0.009632,-0.008979,0.999913,0.009598,-0.009015,-0.999913,-0.000733,-0.001834,-0.068126,-0.003777,0.003478,0.001818,346.327667,350.790466,-1.000000,0.000000,0.000000
482149027.587669,0.072220,-0.011017,-1.055832,0.009598,0.009015,0.003691,0.999947,0.003777,-0.009598,-0.003691,0.999953,0.009015,0.009632,-0.008979,0.999913,0.009598,-0.009015,-0.999913,-0.000733,-0.001834,-0.068126,-0.003777,0.003478,0.001818,346.327667,350.790466,-1.000000,0.000000,0.000000
482149027.597925,-0.027847,-0.005295,-1.080048,0.009598,0.009015,0.003691,0.999947,0.003777,-0.009598,-0.003691,0.999953,0.009015,0.009632,-0.008979,0.999913,0.009598,-0.009015,-0.999913,-0.000733,-0.001834,-0.068126,-0.003777,0.003478,0.001818,346.327667,350.790466,-1.000000,0.000000,0.000000
482149027.609810,0.051376,-0.008636,-1.059891,0.009598,0.009015,0.003691,0.999947,0.003777,-0.009598,-0.003691,0.999953,0.009015,0.009632,-0.008979,0.999913,0.009598,-0.009015,-0.999913,-0.000733,-0.001834,-0.068126,-0.003777,0.003478,0.001818,346.327667,350.790466,-1.000000,0.000000,0.000000
482149027.618325,0.066238,-0.007980,-1.062698,0.009598,0.009015,0.003691,0.999947,0.003777,-0.009598,-0.003691,0.999953,0.009015,0.009632,-0.008979,0.999913,0.009598,-0.009015,-0.999913,-0.000733,-0.001834,-0.068126,-0.003777,0.003478,0.001818,346.327667,350.790466,-1.000000,0.000000,0.000000
482149027.630331,0.100906,-0.002777,-1.075180,0.009598,0.009015,0.003691,0.999947,0.003777,-0.009598,-0.003691,0.999953,0.009015,0.009632,-0.008979,0.999913,0.009598,-0.009015,-0.999913,-0.000733,-0.001834,-0.068126,-0.003777,0.003478,0.001818,346.327667,350.790466,-1.000000,0.000000,0.000000
482149027.637995,0.100906,-0.002777,-1.075180,0.009598,0.009015,0.003691,0.999947,0.003777,-0.009598,-0.003691,0.999953,0.009015,0.009632,-0.008979,0.999913,0.009598,-0.009015,-0.999913,-0.000733,-0.001834,-0.068126,-0.003777,0.003478,0.001818,346.327667,350.790466,-1.000000,0.000000,0.000000
482149027.646984,0.146729,-0.018387,-1.052353,0.009598,0.009015,0.003691,0.999947,0.003777,-0.009598,-0.003691,0.999953,0.009015,0.009632,-0.008979,0.999913,0.009598,-0.009015,-0.999913,-0.000733,-0.001834,-0.068126,-0.003777,0.003478,0.001818,346.327667,350.790466,-1.000000,0.000000,0.000000
482149027.661982,0.052277,-0.002792,-1.069656,0.009598,0.009015,0.003691,0.999947,0.003777,-0.009598,-0.003691,0.999953,0.009015,0.009632,-0.008979,0.999913,0.009598,-0.009015,-0.999913,-0.000733,-0.001834,-0.068126,-0.003777,0.003478,0.001818,346.327667,350.790466,-1.000000,0.000000,0.000000
482149027.667558,-0.003006,-0.018433,-1.045593,0.009598,0.009015,0.003691,0.999947,0.003777,-0.009598,-0.003691,0.999953,0.009015,0.009632,-0.008979,0.999913,0.009598,-0.009015,-0.999913,-0.000733,-0.001834,-0.068126,-0.003777,0.003478,0.001818,346.327667,350.790466,-1.000000,0.000000,0.000000
482149027.677437,-0.054581,-0.011612,-1.066528,0.009598,0.009015,0.003691,0.999947,0.003777,-0.009598,-0.003691,0.999953,0.009015,0.009632,-0.008979,0.999913,0.009598,-0.009015,-0.999913,-0.000733,-0.001834,-0.068126,-0.003777,0.003478,0.001818,346.327667,350.790466,-1.000000,0.000000,0.000000
482149027.688171,-0.061615,-0.012344,-1.047958,0.009598,0.009015,0.003691,0.999947,0.003777,-0.009598,-0.003691,0.999953,0.009015,0.009632,-0.008979,0.999913,0.009598,-0.009015,-0.999913,-0.000733,-0.001834,-0.068126,-0.003777,0.003478,0.001818,346.327667,350.790466,-1.000000,0.000000,0.000000
482149027.697856,0.012772,-0.009918,-1.064087,0.009598,0.009015,0.003691,0.999947,0.003777,-0.009598,-0.003691,0.999953,0.009015,0.009632,-0.008979,0.999913,0.009598,-0.009015,-0.999913,-0.000733,-0.001834,-0.068126,-0.003777,0.003478,0.001818,346.327667,350.790466,-1.000000,0.000000,0.000000
482149027.711424,-0.064468,-0.016296,-1.052887,0.009598,0.009015,0.003691,0.999947,0.003777,-0.009598,-0.003691,0.999953,0.009015,0.009632,-0.008979,0.999913,0.009598,-0.009015,-0.999913,-0.000733,-0.001834,-0.068126,-0.003777,0.003478,0.001818,346.327667,350.790466,-1.000000,0.000000,0.000000
482149027.717697,-0.087143,-0.016953,-1.068726,0.009598,0.009015,0.003691,0.999947,0.003777,-0.009598,-0.003691,0.999953,0.009015,0.009632,-0.008979,0.999913,0.009598,-0.009015,-0.999913,-0.000733,-0.001834,-0.068126,-0.003777,0.003478,0.001818,346.327667,350.790466,-1.000000,0.000000,0.000000
482149027.730088,-0.087143,-0.016953,-1.068726,0.009598,0.009015,0.003691,0.999947,0.003777,-0.009598,-0.003691,0.999953,0.009015,0.009632,-0.008979,0.999913,0.009598,-0.009015,-0.999913,-0.000733,-0.001834,-0.068126,-0.003777,0.003478,0.001818,346.327667,350.790466,-1.000000,0.000000,0.000000
482149027.737848,-0.084427,-0.011902,-1.049103,0.009598,0.009015,0.003691,0.999947,0.003777,-0.009598,-0.003691,0.999953,0.009015,0.009632,-0.008979,0.999913,0.009598,-0.009015,-0.999913,-0.000733,-0.001834,-0.068126,-0.003777,0.003478,0.001818,346.327667,350.790466,-1.000000,0.000000,0.000000
482149027.747835,-0.016998,-0.006409,-1.069199,0.009598,0.009015,0.003691,0.999947,0.003777,-0.009598,-0.003691,0.999953,0.009015,0.009632,-0.008979,0.999913,0.009598,-0.009015,-0.999913,-0.000733,-0.001834,-0.068126,-0.003777,0.003478,0.001818,346.327667,350.790466,-1.000000,0.000000,0.000000
482149027.762665,0.003006,-0.018585,-1.053391,0.009598,0.009015,0.003691,0.999947,0.003777,-0.009598,-0.003691,0.999953,0.009015,0.009632,-0.008979,0.999913,0.009598,-0.009015,-0.999913,-0.000733,-0.001834,-0.068126,-0.003777,0.003478,0.001818,346.327667,350.790466,-1.000000,0.000000,0.000000
482149027.767590,0.029526,-0.005295,-1.066895,0.009598,0.009015,0.003691,0.999947,0.003777,-0.009598,-0.003691,0.999953,0.009015,0.009632,-0.008979,0.999913,0.009598,-0.009015,-0.999913,-0.000733,-0.001834,-0.068126,-0.003777,0.003478,0.001818,346.327667,350.790466,-1.000000,0.000000,0.000000
482149027.777983,0.079407,-0.020126,-1.061661,0.009598,0.009015,0.003691,0.999947,0.003777,-0.009598,-0.003691,0.999953,0.009015,0.009632,-0.008979,0.999913,0.009598,-0.009015,-0.999913,-0.000733,-0.001834,-0.068126,-0.003777,0.003478,0.001818,346.327667,350.790466,-1.000000,0.000000,0.000000
482149027.788387,0.151672,-0.015549,-1.061127,0.009598,0.009015,0.003691,0.999947,0.003777,-0.009598,-0.003691,0.999953,0.009015,0.009632,-0.008979,0.999913,0.009598,-0.009015,-0.999913,-0.000733,-0.001834,-0.068126,-0.003777,0.003478,0.001818,346.327667,350.790466,-1.000000,0.000000,0.000000
482149027.797231,0.008820,-0.010788,-1.060196,0.009598,0.009015,0.003691,0.999947,0.003777,-0.009598,-0.003691,0.999953,0.009015,0.009632,-0.008979,0.999913,0.009598,-0.009015,-0.999913,-0.000733,-0.001834,-0.068126,-0.003777,0.003478,0.001818,346.327667,350.790466,-1.000000,0.000000,0.000000
482149027.810816,0.015625,-0.005981,-1.058182,0.009598,0.009015,0.003691,0.999947,0.003777,-0.009598,-0.003691,0.999953,0.009015,0.009632,-0.008979,0.999913,0.009598,-0.009015,-0.999913,-0.000733,-0.001834,-0.068126,-0.003777,0.003478,0.001818,346.327667,350.790466,-1.000000,0.000000,0.000000
482149027.817834,0.060486,-0.013855,-1.069626,0.009598,0.009015,0.003691,0.999947,0.003777,-0.009598,-0.003691,0.999953,0.009015,0.009632,-0.008979,0.999913,0.009598,-0.009015,-0.999913,-0.000733,-0.001834,-0.068126,-0.003777,0.003478,0.001818,346.327667,350.790466,-1.000000,0.000000,0.000000
482149027.831054,0.044403,-0.007538,-1.061890,0.009598,0.009015,0.003691,0.999947,0.003777,-0.009598,-0.003691,0.999953,0.009015,0.009632,-0.008979,0.999913,0.009598,-0.009015,-0.999913,-0.000733,-0.001834,-0.068126,-0.003777,0.003478,0.001818,346.327667,350.790466,-1.000000,0.000000,0.000000
482149027.837980,0.044403,-0.007538,-1.061890,0.009598,0.009015,0.003691,0.999947,0.003777,-0.009598,-0.003691,0.999953,0.009015,0.009632,-0.008979,0.999913,0.009598,-0.009015,-0.999913,-0.000733,-0.001834,-0.068126,-0.003777,0.003478,0.001818,346.327667,350.790466,-1.000000,0.000000,0.000000
482149027.847286,0.124039,-0.020981,-1.061340,0.009598,0.009015,0.003691,0.999947,0.003777,-0.009598,-0.003691,0.999953,0.009015,0.009632,-0.008979,0.999913,0.009598,-0.009015,-0.999913,-0.000733,-0.001834,-0.068126,-0.003777,0.003478,0.001818,346.327667,350.790466,-1.000000,0.000000,0.000000
482149027.862907,0.056290,-0.006760,-1.059830,0.009598,0.009015,0.003691,0.999947,0.003777,-0.009598,-0.003691,0.999953,0.009015,0.009632,-0.008979,0.999913,0.009598,-0.009015,-0.999913,-0.000733,-0.001834,-0.068126,-0.003777,0.003478,0.001818,346.327667,350.790466,-1.000000,0.000000,0.000000
482149027.867628,-0.038986,-0.005829,-1.045822,0.009598,0.009015,0.003691,0.999947,0.003777,-0.009598,-0.003691,0.999953,0.009015,0.009632,-0.008979,0.999913,0.009598,-0.009015,-0.999913,-0.000733,-0.001834,-0.068126,-0.003777,0.003478,0.001818,346.327667,350.790466,-1.000000,0.000000,0.000000
482149027.877926,-0.132095,0.000702,-1.079819,0.009598,0.009015,0.003691,0.999947,0.003777,-0.009598,-0.003691,0.999953,0.009015,0.009632,-0.008979,0.999913,0.009598,-0.009015,-0.999913,-0.000733,-0.001834,-0.068126,-0.003777,0.003478,0.001818,346.327667,350.790466,-1.000000,0.000000,0.000000
482149027.888170,-0.133987,-0.012909,-1.044586,0.009598,0.009015,0.003691,0.999947,0.003777,-0.009598,-0.003691,0.999953,0.009015,0.009632,-0.008979,0.999913,0.009598,-0.009015,-0.999913,-0.000733,-0.001834,-0.068126,-0.003777,0.003478,0.001818,346.327667,350.790466,-1.000000,0.000000,0.000000
482149027.898117,-0.011932,-0.006607,-1.083862,0.009598,0.009015,0.003691,0.999947,0.003777,-0.009598,-0.003691,0.999953,0.009015,0.009632,-0.008979,0.999913,0.009598,-0.009015,-0.999913,-0.000733,-0.001834,-0.068126,-0.003777,0.003478,0.001818,346.327667,350.790466,-1.000000,0.000000,0.000000
482149027.909519,-0.001297,-0.005585,-1.051437,0.009598,0.009015,0.003691,0.999947,0.003777,-0.009598,-0.003691,0.999953,0.009015,0.009632,-0.008979,0.999913,0.009598,-0.009015,-0.999913,-0.000733,-0.001834,-0.068126,-0.003777,0.003478,0.001818,346.327667,350.790466,-1.000000,0.000000,0.000000
482149027.918400,-0.071426,-0.012253,-1.064697,0.009598,0.009015,0.003691,0.999947,0.003777,-0.009598,-0.003691,0.999953,0.009015,0.009632,-0.008979,0.999913,0.009598,-0.009015,-0.999913,-0.000733,-0.001834,-0.068126,-0.003777,0.003478,0.001818,346.327667,350.790466,-1.000000,0.000000,0.000000
482149027.929054,-0.094177,-0.010910,-1.075653,0.009598,0.009015,0.003691,0.999947,0.003777,-0.009598,-0.003691,0.999953,0.009015,0.009632,-0.008979,0.999913,0.009598,-0.009015,-0.999913,-0.000733,-0.001834,-0.068126,-0.003777,0.003478,0.001818,346.327667,350.790466,-1.000000,0.000000,0.000000
482149027.937943,-0.073532,-0.015015,-1.038239,0.009598,0.009015,0.003691,0.999947,0.003777,-0.009598,-0.003691,0.999953,0.009015,0.009632,-0.008979,0.999913,0.009598,-0.009015,-0.999913,-0.000733,-0.001834,-0.068126,-0.003777,0.003478,0.001818,346.327667,350.790466,-1.000000,0.000000,0.000000
482149027.947165,-0.073532,-0.015015,-1.038239,0.009598,0.009015,0.003691,0.999947,0.003777,-0.009598,-0.003691,0.999953,0.009015,0.009632,-0.008979,0.999913,0.009598,-0.009015,-0.999913,-0.000733,-0.001834,-0.068126,-0.003777,0.003478,0.001818,346.327667,350.790466,-1.000000,0.000000,0.000000
482149027.958084,0.020554,-0.006042,-1.055191,0.009598,0.009015,0.003691,0.999947,0.003777,-0.009598,-0.003691,0.999953,0.009015,0.009632,-0.008979,0.999913,0.009598,-0.009015,-0.999913,-0.000733,-0.001834,-0.068126,-0.003777,0.003478,0.001818,346.327667,350.790466,-1.000000,0.000000,0.000000
482149027.967872,0.060349,-0.007919,-1.071579,0.009598,0.009015,0.003691,0.999947,0.003777,-0.009598,-0.003691,0.999953,0.009015,0.009632,-0.008979,0.999913,0.009598,-0.009015,-0.999913,-0.000733,-0.001834,-0.068126,-0.003777,0.003478,0.001818,346.327667,350.790466,-1.000000,0.000000,0.000000
482149027.978140,0.086075,-0.008362,-1.062546,0.009598,0.009015,0.003691,0.999947,0.003777,-0.009598,-0.003691,0.999953,0.009015,0.009632,-0.008979,0.999913,0.009598,-0.009015,-0.999913,-0.000733,-0.001834,-0.068126,-0.003777,0.003478,0.001818,346.327667,350.790466,-1.000000,0.000000,0.000000
482149027.988129,0.154404,-0.004715,-1.062057,0.009598,0.009015,0.003691,0.999947,0.003777,-0.009598,-0.003691,0.999953,0.009015,0.009632,-0.008979,0.999913,0.009598,-0.009015,-0.999913,-0.000733,-0.001834,-0.068126,-0.003777,0.003478,0.001818,346.327667,350.790466,-1.000000,0.000000,0.000000
482149027.998054,0.053558,-0.014694,-1.067719,0.009598,0.009015,0.003691,0.999947,0.003777,-0.009598,-0.003691,0.999953,0.009015,0.009632,-0.008979,0.999913,0.009598,-0.009015,-0.999913,-0.000733,-0.001834,-0.068126,-0.003777,0.003478,0.001818,346.327667,350.790466,-1.000000,0.000000,0.000000
482149028.008051,-0.018127,-0.002396,-1.065277,0.009598,0.009015,0.003691,0.999947,0.003777,-0.009598,-0.003691,0.999953,0.009015,0.009632,-0.008979,0.999913,0.009598,-0.009015,-0.999913,-0.000733,-0.001834,-0.068126,-0.003777,0.003478,0.001818,346.327667,350.790466,-1.000000,0.000000,0.000000
482149028.018178,0.070297,-0.018814,-1.038193,0.009598,0.009015,0.003691,0.999947,0.003777,-0.009598,-0.003691,0.999953,0.009015,0.009632,-0.008979,0.999913,0.009598,-0.009015,-0.999913,-0.000733,-0.001834,-0.068126,-0.003777,0.003478,0.001818,346.327667,350.790466,-1.000000,0.000000,0.000000
482149028.028127,0.144547,-0.014267,-1.039627,0.009598,0.009015,0.003691,0.999947,0.003777,-0.009598,-0.003691,0.999953,0.009015,0.009632,-0.008979,0.999913,0.009598,-0.009015,-0.999913,-0.000733,-0.001834,-0.068126,-0.003777,0.003478,0.001818,346.327667,350.790466,-1.000000,0.000000,0.000000
482149028.038151,0.124878,-0.006317,-1.090698,0.009598,0.009015,0.003691,0.999947,0.003777,-0.009598,-0.003691,0.999953,0.009015,0.009632,-0.008979,0.999913,0.009598,-0.009015,-0.999913,-0.000733,-0.001834,-0.068126,-0.003777,0.003478,0.001818,346.327667,350.790466,-1.000000,0.000000,0.000000
482149028.047868,0.124878,-0.006317,-1.090698,0.009598,0.009015,0.003691,0.999947,0.003777,-0.009598,-0.003691,0.999953,0.009015,0.009632,-0.008979,0.999913,0.009598,-0.009015,-0.999913,-0.000733,-0.001834,-0.068126,-0.003777,0.003478,0.001818,346.327667,350.790466,-1.000000,0.000000,0.000000
482149028.058088,0.040405,-0.007431,-1.056046,0.009598,0.009015,0.003691,0.999947,0.003777,-0.009598,-0.003691,0.999953,0.009015,0.009632,-0.008979,0.999913,0.009598,-0.009015,-0.999913,-0.000733,-0.001834,-0.068126,-0.003777,0.003478,0.001818,346.327667,350.790466,-1.000000,0.000000,0.000000
482149028.067936,-0.003159,-0.009552,-1.055389,0.009598,0.009015,0.003691,0.999947,0.003777,-0.009598,-0.003691,0.999953,0.009015,0.009632,-0.008979,0.999913,0.009598,-0.009015,-0.999913,-0.000733,-0.001834,-0.068126,-0.003777,0.003478,0.001818,346.327667,350.790466,-1.000000,0.000000,0.000000
482149028.078264,-0.171844,-0.004272,-1.052673,0.009598,0.009015,0.003691,0.999947,0.003777,-0.009598,-0.003691,0.999953,0.009015,0.009632,-0.008979,0.999913,0.009598,-0.009015,-0.999913,-0.000733,-0.001834,-0.068126,-0.003777,0.003478,0.001818,346.327667,350.790466,-1.000000,0.000000,0.000000
482149028.088069,-0.163559,-0.015427,-1.061447,0.009598,0.009015,0.003691,0.999947,0.003777,-0.009598,-0.003691,0.999953,0.009015,0.009632,-0.008979,0.999913,0.009598,-0.009015,-0.999913,-0.000733,-0.001834,-0.068126,-0.003777,0.003478,0.001818,346.327667,350.790466,-1.000000,0.000000,0.000000
482149028.098116,-0.050583,-0.013641,-1.061600,0.009598,0.009015,0.003691,0.999947,0.003777,-0.009598,-0.003691,0.999953,0.009015,0.009632,-0.008979,0.999913,0.009598,-0.009015,-0.999913,-0.000733,-0.001834,-0.068126,-0.003777,0.003478,0.001818,346.327667,350.790466,-1.000000,0.000000,0.000000
482149028.108039,0.034409,-0.001450,-1.068832,0.009598,0.009015,0.003691,0.999947,0.003777,-0.009598,-0.003691,0.999953,0.009015,0.009632,-0.008979,0.999913,0.009598,-0.009015,-0.999913,-0.000733,-0.001834,-0.068126,-0.003777,0.003478,0.001818,346.327667,350.790466,-1.000000,0.000000,0.000000
482149028.118076,-0.087433,-0.005981,-1.064804,0.009598,0.009015,0.003691,0.999947,0.003777,-0.009598,-0.003691,0.999953,0.009015,0.009632,-0.008979,0.999913,0.009598,-0.009015,-0.999913,-0.000733,-0.001834,-0.068126,-0.003777,0.003478,0.001818,346.327667,350.790466,-1.000000,0.000000,0.000000
482149028.127895,-0.111435,0.000473,-1.056152,0.009598,0.009015,0.003691,0.999947,0.003777,-0.009598,-0.003691,0.999953,0.009015,0.009632,-0.008979,0.999913,0.009598,-0.009015,-0.999913,-0.000733,-0.001834,-0.068126,-0.003777,0.003478,0.001818,346.327667,350.790466,-1.000000,0.000000,0.000000
482149028.139176,-0.111435,0.000473,-1.056152,0.009598,0.009015,0.003691,0.999947,0.003777,-0.009598,-0.003691,0.999953,0.009015,0.009632,-0.008979,0.999913,0.009598,-0.009015,-0.999913,-0.000733,-0.001834,-0.068126,-0.003777,0.003478,0.001818,346.327667,350.790466,-1.000000,0.000000,0.000000
482149028.148011,-0.029831,-0.011063,-1.062439,0.009598,0.009015,0.003691,0.999947,0.003777,-0.009598,-0.003691,0.999953,0.009015,0.009632,-0.008979,0.999913,0.009598,-0.009015,-0.999913,-0.000733,-0.001834,-0.068126,-0.003777,0.003478,0.001818,346.327667,350.790466,-1.000000,0.000000,0.000000
482149028.157966,-0.004059,-0.010544,-1.060287,0.009598,0.009015,0.003691,0.999947,0.003777,-0.009598,-0.003691,0.999953,0.009015,0.009632,-0.008979,0.999913,0.009598,-0.009015,-0.999913,-0.000733,-0.001834,-0.068126,-0.003777,0.003478,0.001818,346.327667,350.790466,-1.000000,0.000000,0.000000
482149028.169111,0.044571,-0.011551,-1.068771,0.058344,0.016886,-0.000466,0.998299,0.000519,-0.058302,0.000466,0.999857,0.016885,0.058303,-0.016883,0.998156,0.058302,-0.016885,-0.998156,-0.088133,0.005822,-0.064283,0.004652,-0.005820,0.005656,346.327667,350.790466,-1.000000,0.000000,0.000000
482149028.178148,0.108139,-0.019669,-1.058502,0.058344,0.016886,-0.000466,0.998299,0.000519,-0.058302,0.000466,0.999857,0.016885,0.058303,-0.016883,0.998156,0.058302,-0.016885,-0.998156,-0.088133,0.005822,-0.064283,0.004652,-0.005820,0.005656,346.327667,350.790466,-1.000000,0.000000,0.000000
482149028.188141,0.115860,-0.013794,-1.050598,0.058303,0.016943,-0.000462,0.998301,0.000526,-0.058262,0.000462,0.999856,0.016943,0.058263,-0.016941,0.998158,0.058262,-0.016943,-0.998158,-0.062321,0.006399,-0.062130,0.010831,-0.005807,0.001991,346.327667,350.790466,-1.000000,0.000000,0.000000
482149028.198193,0.000732,-0.003738,-1.064163,0.058280,0.017039,-0.000489,0.998303,0.000504,-0.058238,0.000489,0.999855,0.017038,0.058238,-0.017038,0.998157,0.058238,-0.017038,-0.998157,0.049901,-0.002631,-0.060345,0.005922,-0.004751,-0.005416,346.327667,350.790466,-1.000000,0.000000,0.000000
482149028.208003,0.023666,-0.010117,-1.062057,0.058280,0.017039,-0.000489,0.998303,0.000504,-0.058238,0.000489,0.999855,0.017038,0.058238,-0.017038,0.998157,0.058238,-0.017038,-0.998157,0.049901,-0.002631,-0.060345,0.005922,-0.004751,-0.005416,346.327667,350.790466,-1.000000,0.000000,0.000000
482149028.218068,0.092987,-0.009399,-1.053711,0.058234,0.017149,-0.000512,0.998305,0.000487,-0.058193,0.000512,0.999853,0.017148,0.058193,-0.017149,0.998158,0.058193,-0.017148,-0.998158,0.057667,0.003354,-0.052440,0.008368,-0.006990,0.000747,346.327667,350.790466,-1.000000,0.000000,0.000000
482149028.228076,0.110962,-0.008926,-1.075119,0.058187,0.017231,-0.000467,0.998308,0.000536,-0.058146,0.000467,0.999851,0.017230,0.058146,-0.017228,0.998159,0.058146,-0.017230,-0.998159,-0.057413,0.013491,-0.066004,0.004648,-0.004655,0.006889,346.327667,350.790466,-1.000000,0.000000,0.000000
482149028.237772,0.110962,-0.008926,-1.075119,0.058187,0.017231,-0.000467,0.998308,0.000536,-0.058146,0.000467,0.999851,0.017230,0.058146,-0.017228,0.998159,0.058146,-0.017230,-0.998159,-0.057413,0.013491,-0.066004,0.004648,-0.004655,0.006889,346.327667,350.790466,-1.000000,0.000000,0.000000
482149028.247762,0.103989,-0.010666,-1.063431,0.058175,0.017283,-0.000445,0.998309,0.000561,-0.058133,0.000445,0.999851,0.017283,0.058134,-0.017279,0.998159,0.058133,-0.017283,-0.998159,-0.034467,0.007166,-0.063898,0.004662,0.001088,0.003205,346.327667,350.790466,-1.000000,0.000000,0.000000
482149028.258242,0.034424,-0.002426,-1.067841,0.058173,0.017401,-0.000395,0.998309,0.000617,-0.058131,0.000395,0.999849,0.017400,0.058133,-0.017394,0.998157,0.058131,-0.017400,-0.998157,0.052831,0.008474,-0.076962,0.005895,-0.000058,0.003209,346.327667,350.790466,-1.000000,0.000000,0.000000
482149028.271711,-0.093369,-0.006851,-1.062897,0.058194,0.017387,-0.000393,0.998308,0.000619,-0.058152,0.000393,0.999849,0.017386,0.058154,-0.017379,0.998156,0.058152,-0.017386,-0.998156,0.045836,0.006720,-0.065274,-0.000263,0.003342,0.000724,346.327667,350.790466,-1.000000,0.000000,0.000000
482149028.277652,-0.093369,-0.006851,-1.062897,0.058194,0.017387,-0.000393,0.998308,0.000619,-0.058152,0.000393,0.999849,0.017386,0.058154,-0.017379,0.998156,0.058152,-0.017386,-0.998156,0.045836,0.006720,-0.065274,-0.000263,0.003342,0.000724,346.327667,350.790466,-1.000000,0.000000,0.000000
482149028.288134,-0.095200,-0.013763,-1.060944,0.058192,0.017477,-0.000402,0.998308,0.000615,-0.058151,0.000402,0.999847,0.017476,0.058152,-0.017470,0.998155,0.058151,-0.017476,-0.998155,-0.075118,0.005239,-0.054381,-0.000291,0.001105,0.009337,346.327667,350.790466,-1.000000,0.000000,0.000000
482149028.298836,0.031403,-0.005234,-1.052170,0.058192,0.017477,-0.000402,0.998308,0.000615,-0.058151,0.000402,0.999847,0.017476,0.058152,-0.017470,0.998155,0.058151,-0.017476,-0.998155,-0.075118,0.005239,-0.054381,-0.000291,0.001105,0.009337,346.327667,350.790466,-1.000000,0.000000,0.000000
482149028.308019,-0.009003,-0.010468,-1.063248,0.058174,0.017457,-0.000388,0.998309,0.000628,-0.058132,0.000388,0.999848,0.017457,0.058134,-0.017450,0.998156,0.058132,-0.017457,-0.998156,-0.151501,0.010605,-0.064740,-0.001478,-0.004803,-0.005450,346.327667,350.790466,-1.000000,0.000000,0.000000
482149028.318086,-0.086487,-0.002121,-1.072632,0.058206,0.017497,-0.000454,0.998307,0.000565,-0.058164,0.000454,0.999847,0.017496,0.058165,-0.017493,0.998154,0.058164,-0.017496,-0.998154,-0.153364,0.003732,-0.062790,0.005901,0.006860,0.001988,346.327667,350.790466,-1.000000,0.000000,0.000000
482149028.328930,-0.099396,-0.010559,-1.041382,0.058206,0.017497,-0.000454,0.998307,0.000565,-0.058164,0.000454,0.999847,0.017496,0.058165,-0.017493,0.998154,0.058164,-0.017496,-0.998154,-0.153364,0.003732,-0.062790,0.005901,0.006860,0.001988,346.327667,350.790466,-1.000000,0.000000,0.000000
482149028.338183,-0.081482,-0.004181,-1.070633,0.058194,0.017579,-0.000433,0.998308,0.000590,-0.058152,0.000433,0.999845,0.017579,0.058154,-0.017574,0.998153,0.058152,-0.017579,-0.998153,-0.026750,0.012345,-0.054017,0.004661,-0.001222,0.003201,346.327667,350.790466,-1.000000,0.000000,0.000000
482149028.348622,-0.081482,-0.004181,-1.070633,0.058159,0.017681,-0.000461,0.998310,0.000568,-0.058117,0.000461,0.999844,0.017680,0.058118,-0.017677,0.998153,0.058117,-0.017680,-0.998153,-0.144604,0.015559,-0.074479,0.008389,-0.003578,-0.005403,346.327667,350.790466,-1.000000,0.000000,0.000000
482149028.357901,-0.010986,-0.018219,-1.037781,0.058159,0.017681,-0.000461,0.998310,0.000568,-0.058117,0.000461,0.999844,0.017680,0.058118,-0.017677,0.998153,0.058117,-0.017680,-0.998153,-0.144604,0.015559,-0.074479,0.008389,-0.003578,-0.005403,346.327667,350.790466,-1.000000,0.000000,0.000000
482149028.368189,0.091080,-0.014297,-1.047836,0.058191,0.017716,-0.000438,0.998308,0.000593,-0.058149,0.000438,0.999843,0.017715,0.058151,-0.017710,0.998151,0.058149,-0.017715,-0.998151,-0.157545,0.007156,-0.043231,-0.000270,0.004517,0.003188,346.327667,350.790466,-1.000000,0.000000,0.000000
482149028.378059,0.123718,-0.003204,-1.074066,0.058195,0.017836,-0.000346,0.998307,0.000692,-0.058152,0.000346,0.999841,0.017835,0.058156,-0.017825,0.998148,0.058152,-0.017835,-0.998148,-0.139634,0.013654,-0.072485,0.005899,-0.000069,0.001977,346.327667,350.790466,-1.000000,0.000000,0.000000
482149028.388350,0.182205,-0.006256,-1.064804,0.058194,0.017922,-0.000368,0.998308,0.000675,-0.058152,0.000368,0.999839,0.017921,0.058155,-0.017912,0.998147,0.058152,-0.017921,-0.998147,-0.069138,-0.000298,-0.039634,0.008370,0.002248,0.000761,346.327667,350.790466,-1.000000,0.000000,0.000000
482149028.397387,0.021774,-0.013062,-1.064026,0.058194,0.017922,-0.000368,0.998308,0.000675,-0.058152,0.000368,0.999839,0.017921,0.058155,-0.017912,0.998147,0.058152,-0.017921,-0.998147,-0.069138,-0.000298,-0.039634,0.008370,0.002248,0.000761,346.327667,350.790466,-1.000000,0.000000,0.000000
482149028.407863,0.012695,-0.002090,-1.078766,0.058186,0.018029,-0.000300,0.998308,0.000749,-0.058144,0.000300,0.999837,0.018028,0.058148,-0.018015,0.998145,0.058144,-0.018028,-0.998145,0.065574,0.014824,-0.075921,0.004652,-0.003510,0.005659,346.327667,350.790466,-1.000000,0.000000,0.000000
482149028.418194,0.084167,-0.018066,-1.040054,0.058162,0.018014,-0.000304,0.998309,0.000744,-0.058120,0.000304,0.999838,0.018013,0.058124,-0.018000,0.998147,0.058120,-0.018013,-0.998147,0.124085,0.011757,-0.066657,-0.006422,0.000967,-0.001770,346.327667,350.790466,-1.000000,0.000000,0.000000
482149028.435403,0.096024,-0.003708,-1.081131,0.058082,0.018108,-0.000259,0.998314,0.000793,-0.058039,0.000259,0.999836,0.018107,0.058044,-0.018091,0.998150,0.058039,-0.018107,-0.998150,-0.045344,0.016016,-0.080616,0.002181,-0.005827,0.006875,346.327667,350.790466,-1.000000,0.000000,0.000000
482149028.437659,0.096024,-0.003708,-1.081131,0.058082,0.018108,-0.000259,0.998314,0.000793,-0.058039,0.000259,0.999836,0.018107,0.058044,-0.018091,0.998150,0.058039,-0.018107,-0.998150,-0.045344,0.016016,-0.080616,0.002181,-0.005827,0.006875,346.327667,350.790466,-1.000000,0.000000,0.000000
482149028.447926,0.149460,-0.004639,-1.065033,0.058102,0.018114,-0.000204,0.998313,0.000848,-0.058060,0.000204,0.999836,0.018113,0.058066,-0.018094,0.998149,0.058060,-0.018113,-0.998149,0.026107,0.000047,-0.041906,-0.001507,0.007983,0.004418,346.327667,350.790466,-1.000000,0.000000,0.000000
482149028.460711,0.038681,-0.016342,-1.059982,0.058102,0.018114,-0.000204,0.998313,0.000848,-0.058060,0.000204,0.999836,0.018113,0.058066,-0.018094,0.998149,0.058060,-0.018113,-0.998149,0.026107,0.000047,-0.041906,-0.001507,0.007983,0.004418,346.327667,350.790466,-1.000000,0.000000,0.000000
482149028.467788,-0.035812,-0.008972,-1.064438,0.058076,0.018171,-0.000061,0.998314,0.000993,-0.058034,0.000061,0.999835,0.018170,0.058043,-0.018143,0.998149,0.058034,-0.018170,-0.998149,0.037989,0.014462,-0.082982,-0.001522,-0.004688,0.008091,346.327667,350.790466,-1.000000,0.000000,0.000000
482149028.478026,-0.103165,-0.005814,-1.084534,0.058081,0.018243,-0.000010,0.998314,0.001049,-0.058038,0.000010,0.999834,0.018242,0.058048,-0.018212,0.998148,0.058038,-0.018242,-0.998148,0.091421,0.013604,-0.066885,0.007112,0.002301,0.008141,346.327667,350.790466,-1.000000,0.000000,0.000000
482149028.489057,-0.151886,-0.011566,-1.044708,0.058081,0.018243,-0.000010,0.998314,0.001049,-0.058038,0.000010,0.999834,0.018242,0.058048,-0.018212,0.998148,0.058038,-0.018242,-0.998148,0.091421,0.013604,-0.066885,0.007112,0.002301,0.008141,346.327667,350.790466,-1.000000,0.000000,0.000000
482149028.497998,-0.020676,-0.013367,-1.083939,0.058078,0.018265,0.000033,0.998314,0.001093,-0.058036,-0.000033,0.999833,0.018263,0.058046,-0.018231,0.998147,0.058036,-0.018263,-0.998147,-0.093848,0.009291,-0.066290,-0.003961,-0.004779,-0.000537,346.327667,350.790466,-1.000000,0.000000,0.000000
482149028.508068,-0.014053,-0.014191,-1.039795,0.058072,0.018302,0.000002,0.998314,0.001064,-0.058029,-0.000002,0.999833,0.018301,0.058039,-0.018270,0.998147,0.058029,-0.018301,-0.998147,-0.161194,0.012488,-0.086387,0.004686,0.003335,-0.004178,346.327667,350.790466,-1.000000,0.000000,0.000000
482149028.518973,-0.095184,-0.016708,-1.056046,0.058072,0.018302,0.000002,0.998314,0.001064,-0.058029,-0.000002,0.999833,0.018301,0.058039,-0.018270,0.998147,0.058029,-0.018301,-0.998147,-0.161194,0.012488,-0.086387,0.004686,0.003335,-0.004178,346.327667,350.790466,-1.000000,0.000000,0.000000
482149028.530099,-0.110077,-0.016418,-1.054199,0.058059,0.018392,-0.000031,0.998315,0.001036,-0.058017,0.000031,0.999831,0.018390,0.058026,-0.018361,0.998146,0.058017,-0.018390,-0.998146,-0.209903,0.006824,-0.046562,0.013326,-0.003554,-0.006613,346.327667,350.790466,-1.000000,0.000000,0.000000
482149028.537677,-0.110077,-0.016418,-1.054199,0.058042,0.018462,-0.000118,0.998316,0.000953,-0.058000,0.000118,0.999830,0.018461,0.058008,-0.018437,0.998146,0.058000,-0.018461,-0.998146,-0.078676,0.005095,-0.085793,0.007167,-0.001309,-0.009099,346.327667,350.790466,-1.000000,0.000000,0.000000
482149028.548171,-0.006851,-0.013611,-1.078918,0.058034,0.018507,-0.000082,0.998317,0.000991,-0.057992,0.000082,0.999829,0.018506,0.058000,-0.018480,0.998146,0.057992,-0.018506,-0.998146,-0.153176,0.001798,-0.057900,0.000969,0.001041,0.000725,346.327667,350.790466,-1.000000,0.000000,0.000000
482149028.557938,0.055267,-0.008652,-1.050049,0.058034,0.018507,-0.000082,0.998317,0.000991,-0.057992,0.000082,0.999829,0.018506,0.058000,-0.018480,0.998146,0.057992,-0.018506,-0.998146,-0.153176,0.001798,-0.057900,0.000969,0.001041,0.000725,346.327667,350.790466,-1.000000,0.000000,0.000000
482149028.568094,0.061310,-0.004028,-1.079407,0.058067,0.018498,-0.000087,0.998315,0.000987,-0.058024,0.000087,0.999829,0.018497,0.058033,-0.018471,0.998144,0.058024,-0.018497,-0.998144,-0.168101,0.002079,-0.056055,-0.001481,0.000981,-0.004210,346.327667,350.790466,-1.000000,0.000000,0.000000
482149028.578117,0.118011,-0.019821,-1.051559,0.058054,0.018565,-0.000094,0.998315,0.000983,-0.058011,0.000094,0.999828,0.018564,0.058019,-0.018538,0.998143,0.058011,-0.018564,-0.998143,-0.002744,0.009912,-0.051906,0.000953,0.001082,0.005649,346.327667,350.790466,-1.000000,0.000000,0.000000
482149028.588172,0.095825,-0.000626,-1.065430,0.058054,0.018565,-0.000094,0.998315,0.000983,-0.058011,0.000094,0.999828,0.018564,0.058019,-0.018538,0.998143,0.058011,-0.018564,-0.998143,-0.002744,0.009912,-0.051906,0.000953,0.001082,0.005649,346.327667,350.790466,-1.000000,0.000000,0.000000
482149028.598043,0.073212,-0.011978,-1.051895,0.058069,0.018550,-0.000111,0.998315,0.000966,-0.058027,0.000111,0.999828,0.018548,0.058035,-0.018524,0.998143,0.058027,-0.018548,-0.998143,0.003283,0.014520,-0.081264,-0.000259,0.002176,-0.000510,346.327667,350.790466,-1.000000,0.000000,0.000000
482149028.608566,0.076385,-0.018066,-1.060684,0.058145,0.018570,-0.000092,0.998310,0.000988,-0.058103,0.000092,0.999828,0.018568,0.058111,-0.018542,0.998138,0.058103,-0.018568,-0.998138,0.059909,-0.001253,-0.053422,0.000991,0.005607,-0.005423,346.327667,350.790466,-1.000000,0.000000,0.000000
482149028.618364,0.118927,-0.012009,-1.068237,0.058145,0.018570,-0.000092,0.998310,0.000988,-0.058103,0.000092,0.999828,0.018568,0.058111,-0.018542,0.998138,0.058103,-0.018568,-0.998138,0.059909,-0.001253,-0.053422,0.000991,0.005607,-0.005423,346.327667,350.790466,-1.000000,0.000000,0.000000
482149028.628147,0.125763,-0.013977,-1.047592,0.058167,0.018614,-0.000111,0.998309,0.000971,-0.058124,0.000111,0.999827,0.018613,0.058132,-0.018588,0.998136,0.058124,-0.018613,-0.998136,0.037701,0.017987,-0.067294,0.007137,0.004549,0.000759,346.327667,350.790466,-1.000000,0.000000,0.000000
482149028.637793,0.125763,-0.013977,-1.047592,0.058204,0.018697,-0.000041,0.998307,0.001046,-0.058161,0.000041,0.999825,0.018696,0.058170,-0.018666,0.998132,0.058161,-0.018696,-0.998132,0.018225,0.000629,-0.062552,0.005895,-0.000059,0.003208,346.327667,350.790466,-1.000000,0.000000,0.000000
482149028.650874,0.021683,-0.006180,-1.072830,0.058197,0.018713,-0.000023,0.998307,0.001065,-0.058154,0.000023,0.999825,0.018712,0.058164,-0.018682,0.998132,0.058154,-0.018712,-0.998132,0.060773,0.006703,-0.070105,0.000957,0.001072,0.004418,346.327667,350.790466,-1.000000,0.000000,0.000000
482149028.657818,0.021683,-0.006180,-1.072830,0.058197,0.018713,-0.000023,0.998307,0.001065,-0.058154,0.000023,0.999825,0.018712,0.058164,-0.018682,0.998132,0.058154,-0.018712,-0.998132,0.060773,0.006703,-0.070105,0.000957,0.001072,0.004418,346.327667,350.790466,-1.000000,0.000000,0.000000
482149028.667840,-0.015884,-0.016251,-1.054504,0.058200,0.018701,-0.000050,0.998307,0.001037,-0.058157,0.000050,0.999825,0.018700,0.058166,-0.018671,0.998132,0.058157,-0.018700,-0.998132,0.056696,0.008827,-0.063269,-0.000264,-0.001278,0.000715,346.327667,350.790466,-1.000000,0.000000,0.000000
482149028.679134,-0.167786,-0.005402,-1.060486,0.058200,0.018701,-0.000050,0.998307,0.001037,-0.058157,0.000050,0.999825,0.018700,0.058166,-0.018671,0.998132,0.058157,-0.018700,-0.998132,0.056696,0.008827,-0.063269,-0.000264,-0.001278,0.000715,346.327667,350.790466,-1.000000,0.000000,0.000000
482149028.688083,-0.142090,-0.006790,-1.045593,0.058188,0.018729,-0.000033,0.998308,0.001056,-0.058145,0.000033,0.999825,0.018728,0.058154,-0.018698,0.998132,0.058145,-0.018728,-0.998132,-0.036462,0.012548,-0.074698,0.005894,-0.001213,0.003206,346.327667,350.790466,-1.000000,0.000000,0.000000
482149028.698033,0.014816,-0.009018,-1.073868,0.058225,0.018752,-0.000062,0.998305,0.001029,-0.058182,0.000062,0.999824,0.018751,0.058191,-0.018723,0.998130,0.058182,-0.018751,-0.998130,-0.074066,0.002501,-0.056375,0.000993,-0.001332,-0.006665,346.327667,350.790466,-1.000000,0.000000,0.000000
482149028.708587,-0.015778,-0.015381,-1.071167,0.058252,0.018718,-0.000101,0.998304,0.000989,-0.058209,0.000101,0.999825,0.018717,0.058217,-0.018691,0.998129,0.058209,-0.018717,-0.998129,-0.225995,0.013315,-0.062357,-0.001486,-0.000163,-0.002982,346.327667,350.790466,-1.000000,0.000000,0.000000
482149028.718027,-0.087326,-0.010925,-1.060883,0.058252,0.018718,-0.000101,0.998304,0.000989,-0.058209,0.000101,0.999825,0.018717,0.058217,-0.018691,0.998129,0.058209,-0.018717,-0.998129,-0.225995,0.013315,-0.062357,-0.001486,-0.000163,-0.002982,346.327667,350.790466,-1.000000,0.000000,0.000000
482149028.728360,-0.087326,-0.010925,-1.060883,0.058199,0.018730,-0.000106,0.998307,0.000984,-0.058156,0.000106,0.999825,0.018729,0.058164,-0.018704,0.998132,0.058156,-0.018729,-0.998132,-0.043340,0.009711,-0.075736,-0.001513,0.002219,0.005639,346.327667,350.790466,-1.000000,0.000000,0.000000
482149028.739643,-0.036880,-0.006943,-1.062500,0.058204,0.018764,-0.000107,0.998307,0.000985,-0.058161,0.000107,0.999824,0.018763,0.058169,-0.018737,0.998131,0.058161,-0.018763,-0.998131,-0.073938,0.003382,-0.073036,0.003451,-0.003603,-0.004196,346.327667,350.790466,-1.000000,0.000000,0.000000
482149028.747966,-0.036880,-0.006943,-1.062500,0.058204,0.018764,-0.000107,0.998307,0.000985,-0.058161,0.000107,0.999824,0.018763,0.058169,-0.018737,0.998131,0.058161,-0.018763,-0.998131,-0.073938,0.003382,-0.073036,0.003451,-0.003603,-0.004196,346.327667,350.790466,-1.000000,0.000000,0.000000
482149028.757789,-0.006958,-0.018372,-1.048538,0.058208,0.018885,-0.000099,0.998307,0.000999,-0.058165,0.000099,0.999822,0.018884,0.058173,-0.018858,0.998128,0.058165,-0.018884,-0.998128,-0.145491,0.007959,-0.062754,0.010843,-0.003529,-0.001700,346.327667,350.790466,-1.000000,0.000000,0.000000
482149028.767961,0.032440,-0.002396,-1.066879,0.058224,0.018887,-0.000122,0.998306,0.000977,-0.058180,0.000122,0.999822,0.018886,0.058189,-0.018861,0.998127,0.058180,-0.018886,-0.998127,-0.159453,0.007290,-0.054042,-0.000248,0.000990,-0.004205,346.327667,350.790466,-1.000000,0.000000,0.000000
482149028.778297,0.120804,-0.009033,-1.064270,0.058224,0.018887,-0.000122,0.998306,0.000977,-0.058180,0.000122,0.999822,0.018886,0.058189,-0.018861,0.998127,0.058180,-0.018886,-0.998127,-0.159453,0.007290,-0.054042,-0.000248,0.000990,-0.004205,346.327667,350.790466,-1.000000,0.000000,0.000000
482149028.787935,0.136765,-0.016190,-1.051422,0.058249,0.018921,-0.000074,0.998304,0.001027,-0.058206,0.000074,0.999821,0.018920,0.058215,-0.018892,0.998125,0.058206,-0.018920,-0.998125,-0.065164,0.000548,-0.050413,0.005880,0.005757,0.008140,346.327667,350.790466,-1.000000,0.000000,0.000000
482149028.798007,-0.002090,-0.009628,-1.063202,0.058214,0.018900,-0.000084,0.998306,0.001016,-0.058171,0.000084,0.999821,0.018899,0.058180,-0.018872,0.998128,0.058171,-0.018899,-0.998128,-0.025731,0.016503,-0.068752,-0.005187,-0.005964,-0.003008,346.327667,350.790466,-1.000000,0.000000,0.000000
482149028.809255,0.030640,-0.010284,-1.067886,0.058214,0.018900,-0.000084,0.998306,0.001016,-0.058171,0.000084,0.999821,0.018899,0.058180,-0.018872,0.998128,0.058171,-0.018899,-0.998128,-0.025731,0.016503,-0.068752,-0.005187,-0.005964,-0.003008,346.327667,350.790466,-1.000000,0.000000,0.000000
482149028.817908,0.092026,-0.008469,-1.063507,0.058228,0.018878,-0.000063,0.998305,0.001036,-0.058185,0.000063,0.999822,0.018877,0.058194,-0.018849,0.998127,0.058185,-0.018877,-0.998127,0.078580,0.002687,-0.053295,0.007117,0.006910,0.006917,346.327667,350.790466,-1.000000,0.000000,0.000000
482149028.828056,0.123749,-0.008087,-1.062286,0.058215,0.018837,-0.000006,0.998306,0.001090,-0.058171,0.000006,0.999823,0.018835,0.058182,-0.018804,0.998129,0.058171,-0.018835,-0.998129,-0.060262,0.009207,-0.065073,-0.008903,-0.004793,0.001902,346.327667,350.790466,-1.000000,0.000000,0.000000
482149028.839753,0.123749,-0.008087,-1.062286,0.058215,0.018837,-0.000006,0.998306,0.001090,-0.058171,0.000006,0.999823,0.018835,0.058182,-0.018804,0.998129,0.058171,-0.018835,-0.998129,-0.060262,0.009207,-0.065073,-0.008903,-0.004793,0.001902,346.327667,350.790466,-1.000000,0.000000,0.000000
482149028.847968,0.109009,-0.012756,-1.064377,0.058212,0.018857,0.000019,0.998306,0.001116,-0.058169,-0.000019,0.999822,0.018856,0.058180,-0.018823,0.998129,0.058169,-0.018856,-0.998129,-0.027529,0.008571,-0.069758,-0.003975,0.003346,0.004399,346.327667,350.790466,-1.000000,0.000000,0.000000
482149028.858113,0.057190,0.002029,-1.077469,0.058223,0.018907,-0.000007,0.998306,0.001094,-0.058179,0.000007,0.999821,0.018906,0.058190,-0.018874,0.998127,0.058179,-0.018906,-0.998127,0.033846,0.010437,-0.065380,0.009618,-0.001250,-0.004164,346.327667,350.790466,-1.000000,0.000000,0.000000
482149028.868961,-0.089294,-0.007019,-1.075607,0.058223,0.018907,-0.000007,0.998306,0.001094,-0.058179,0.000007,0.999821,0.018906,0.058190,-0.018874,0.998127,0.058179,-0.018906,-0.998127,0.033846,0.010437,-0.065380,0.009618,-0.001250,-0.004164,346.327667,350.790466,-1.000000,0.000000,0.000000
482149028.878230,-0.097397,-0.011581,-1.038406,0.058148,0.018897,-0.000088,0.998310,0.001010,-0.058105,0.000088,0.999821,0.018896,0.058114,-0.018869,0.998132,0.058105,-0.018896,-0.998132,0.050904,0.006140,-0.066245,-0.000267,-0.011671,0.000698,346.327667,350.790466,-1.000000,0.000000,0.000000
482149028.888049,-0.126877,-0.011276,-1.076843,0.058136,0.018955,-0.000078,0.998311,0.001023,-0.058093,0.000078,0.999820,0.018954,0.058102,-0.018927,0.998131,0.058093,-0.018954,-0.998131,-0.000903,0.020984,-0.079338,0.007144,0.002217,-0.001708,346.327667,350.790466,-1.000000,0.000000,0.000000
482149028.897936,0.010574,-0.006760,-1.044479,0.058167,0.019018,-0.000044,0.998309,0.001062,-0.058124,0.000044,0.999819,0.019017,0.058134,-0.018987,0.998128,0.058124,-0.019017,-0.998128,-0.155521,0.007436,-0.040278,0.002197,0.009153,0.003204,346.327667,350.790466,-1.000000,0.000000,0.000000
482149028.908077,0.027817,-0.017151,-1.063980,0.058167,0.019018,-0.000044,0.998309,0.001062,-0.058124,0.000044,0.999819,0.019017,0.058134,-0.018987,0.998128,0.058124,-0.019017,-0.998128,-0.155521,0.007436,-0.040278,0.002197,0.009153,0.003204,346.327667,350.790466,-1.000000,0.000000,0.000000
482149028.918050,-0.084549,-0.001144,-1.070648,0.058189,0.019034,-0.000043,0.998308,0.001064,-0.058145,0.000043,0.999819,0.019033,0.058155,-0.019003,0.998127,0.058145,-0.019033,-0.998127,-0.185022,0.007756,-0.078717,0.000957,0.002226,0.004419,346.327667,350.790466,-1.000000,0.000000,0.000000
482149028.927805,-0.084549,-0.001144,-1.070648,0.058186,0.019040,-0.000048,0.998308,0.001060,-0.058143,0.000048,0.999819,0.019039,0.058152,-0.019010,0.998127,0.058143,-0.019039,-0.998127,-0.047568,0.012280,-0.046353,-0.003961,-0.001315,-0.000533,346.327667,350.790466,-1.000000,0.000000,0.000000
482149028.938891,-0.082382,-0.012009,-1.057907,0.058186,0.019040,-0.000048,0.998308,0.001060,-0.058143,0.000048,0.999819,0.019039,0.058152,-0.019010,0.998127,0.058143,-0.019039,-0.998127,-0.047568,0.012280,-0.046353,-0.003961,-0.001315,-0.000533,346.327667,350.790466,-1.000000,0.000000,0.000000
482149028.948835,-0.104294,-0.013443,-1.037491,0.058213,0.019056,-0.000048,0.998306,0.001061,-0.058170,0.000047,0.999818,0.019055,0.058179,-0.019025,0.998125,0.058170,-0.019055,-0.998125,-0.030353,0.001904,-0.065855,0.000970,0.004505,0.000729,346.327667,350.790466,-1.000000,0.000000,0.000000
482149028.957974,0.004745,-0.006760,-1.058258,0.058183,0.019097,-0.000078,0.998308,0.001033,-0.058140,0.000078,0.999818,0.019096,0.058149,-0.019068,0.998126,0.058140,-0.019096,-0.998126,-0.140522,0.007087,-0.059781,-0.000272,-0.000103,0.003178,346.327667,350.790466,-1.000000,0.000000,0.000000
482149028.968134,0.065292,-0.009918,-1.063705,0.058183,0.019097,-0.000078,0.998308,0.001033,-0.058140,0.000078,0.999818,0.019096,0.058149,-0.019068,0.998126,0.058140,-0.019096,-0.998126,-0.140522,0.007087,-0.059781,-0.000272,-0.000103,0.003178,346.327667,350.790466,-1.000000,0.000000,0.000000
482149028.977873,0.133942,-0.018250,-1.066162,0.058159,0.019134,-0.000019,0.998309,0.001093,-0.058116,0.000019,0.999817,0.019133,0.058126,-0.019101,0.998127,0.058116,-0.019133,-0.998127,-0.162410,0.005690,-0.039364,0.002181,-0.005827,0.006874,346.327667,350.790466,-1.000000,0.000000,0.000000
482149028.988393,0.118774,-0.002167,-1.081924,0.058135,0.019241,-0.000047,0.998311,0.001071,-0.058092,0.000047,0.999815,0.019240,0.058102,-0.019210,0.998126,0.058092,-0.019240,-0.998126,0.007201,0.009322,-0.065580,0.007152,0.002197,-0.004170,346.327667,350.790466,-1.000000,0.000000,0.000000
482149028.997643,0.060333,-0.013702,-1.048065,0.058135,0.019241,-0.000047,0.998311,0.001071,-0.058092,0.000047,0.999815,0.019240,0.058102,-0.019210,0.998126,0.058092,-0.019240,-0.998126,0.007201,0.009322,-0.065580,0.007152,0.002197,-0.004170,346.327667,350.790466,-1.000000,0.000000,0.000000
482149029.007954,0.023529,-0.002228,-1.067917,0.058118,0.019341,-0.000051,0.998312,0.001072,-0.058074,0.000051,0.999813,0.019340,0.058084,-0.019310,0.998125,0.058074,-0.019340,-0.998125,0.007218,0.009421,-0.065581,0.007135,-0.000071,0.000750,346.327667,350.790466,-1.000000,0.000000,0.000000
482149029.018114,0.101974,-0.012543,-1.051682,0.058132,0.019406,0.000026,0.998311,0.001153,-0.058088,-0.000026,0.999812,0.019405,0.058100,-0.019370,0.998123,0.058088,-0.019405,-0.998123,0.060686,0.017238,-0.083802,0.000945,-0.000052,0.008108,346.327667,350.790466,-1.000000,0.000000,0.000000
482149029.028979,0.149536,-0.013428,-1.046432,0.058132,0.019406,0.000026,0.998311,0.001153,-0.058088,-0.000026,0.999812,0.019405,0.058100,-0.019370,0.998123,0.058088,-0.019405,-0.998123,0.060686,0.017238,-0.083802,0.000945,-0.000052,0.008108,346.327667,350.790466,-1.000000,0.000000,0.000000
482149029.039294,0.149536,-0.013428,-1.046432,0.058102,0.019417,0.000062,0.998312,0.001189,-0.058059,-0.000062,0.999811,0.019416,0.058071,-0.019380,0.998124,0.058059,-0.019416,-0.998124,0.002275,0.005714,-0.049941,0.005906,-0.003554,-0.000492,346.327667,350.790466,-1.000000,0.000000,0.000000
482149029.047489,0.086197,-0.011383,-1.068466,0.058044,0.019433,0.000003,0.998316,0.001130,-0.058001,-0.000003,0.999811,0.019432,0.058012,-0.019399,0.998127,0.058001,-0.019432,-0.998127,0.043974,0.006889,-0.053554,-0.000258,-0.008228,-0.001759,346.327667,350.790466,-1.000000,0.000000,0.000000
482149029.059686,-0.040848,-0.008804,-1.053696,0.058043,0.019448,-0.000003,0.998316,0.001125,-0.058000,0.000003,0.999811,0.019447,0.058011,-0.019414,0.998127,0.058000,-0.019447,-0.998127,0.091536,0.006019,-0.048305,0.000973,-0.000125,-0.000509,346.327667,350.790466,-1.000000,0.000000,0.000000
482149029.067803,-0.040848,-0.008804,-1.053696,0.058043,0.019448,-0.000003,0.998316,0.001125,-0.058000,0.000003,0.999811,0.019447,0.058011,-0.019414,0.998127,0.058000,-0.019447,-0.998127,0.091536,0.006019,-0.048305,0.000973,-0.000125,-0.000509,346.327667,350.790466,-1.000000,0.000000,0.000000
482149029.078328,-0.119904,-0.011444,-1.080734,0.057991,0.019515,-0.000005,0.998319,0.001126,-0.057947,0.000005,0.999810,0.019514,0.057958,-0.019481,0.998129,0.057947,-0.019514,-0.998129,0.028250,0.008131,-0.070337,0.012048,-0.001138,0.006926,346.327667,350.790466,-1.000000,0.000000,0.000000
482149029.088114,-0.118103,-0.015182,-1.042496,0.057978,0.019552,0.000054,0.998320,0.001187,-0.057934,-0.000054,0.999809,0.019550,0.057947,-0.019514,0.998129,0.057934,-0.019550,-0.998129,-0.055081,0.010838,-0.065042,-0.001502,-0.002432,0.001938,346.327667,350.790466,-1.000000,0.000000,0.000000
482149029.098252,-0.018753,-0.017258,-1.063324,0.057978,0.019552,0.000054,0.998320,0.001187,-0.057934,-0.000054,0.999809,0.019550,0.057947,-0.019514,0.998129,0.057934,-0.019550,-0.998129,-0.055081,0.010838,-0.065042,-0.001502,-0.002432,0.001938,346.327667,350.790466,-1.000000,0.000000,0.000000
482149029.108036,0.010803,-0.013748,-1.050369,0.057949,0.019595,-0.000042,0.998321,0.001093,-0.057905,0.000042,0.999808,0.019594,0.057916,-0.019564,0.998130,0.057905,-0.019594,-0.998130,-0.177809,0.008150,-0.082604,0.008369,-0.000062,0.000755,346.327667,350.790466,-1.000000,0.000000,0.000000
482149029.118346,-0.063629,-0.014221,-1.037201,0.057959,0.019579,-0.000070,0.998321,0.001064,-0.057916,0.000070,0.999808,0.019578,0.057925,-0.019549,0.998129,0.057916,-0.019578,-0.998129,-0.176019,0.004396,-0.044366,-0.000240,0.002123,-0.006667,346.327667,350.790466,-1.000000,0.000000,0.000000
482149029.127602,-0.140839,-0.014816,-1.051468,0.057959,0.019579,-0.000070,0.998321,0.001064,-0.057916,0.000070,0.999808,0.019578,0.057925,-0.019549,0.998129,0.057916,-0.019578,-0.998129,-0.176019,0.004396,-0.044366,-0.000240,0.002123,-0.006667,346.327667,350.790466,-1.000000,0.000000,0.000000
482149029.137906,-0.017883,-0.009415,-1.077057,0.057984,0.019554,-0.000001,0.998319,0.001132,-0.057940,0.000001,0.999809,0.019553,0.057951,-0.019520,0.998129,0.057940,-0.019553,-0.998129,-0.047137,0.005805,-0.052241,0.009591,0.002287,0.004458,346.327667,350.790466,-1.000000,0.000000,0.000000
482149029.150504,0.027603,-0.009171,-1.059082,0.057978,0.019648,0.000001,0.998320,0.001140,-0.057934,-0.000001,0.999807,0.019646,0.057945,-0.019613,0.998127,0.057934,-0.019646,-0.998127,-0.121563,0.005425,-0.039074,0.007139,-0.000082,-0.000481,346.327667,350.790466,-1.000000,0.000000,0.000000
482149029.159763,0.027603,-0.009171,-1.059082,0.057978,0.019648,0.000001,0.998320,0.001140,-0.057934,-0.000001,0.999807,0.019646,0.057945,-0.019613,0.998127,0.057934,-0.019646,-0.998127,-0.121563,0.005425,-0.039074,0.007139,-0.000082,-0.000481,346.327667,350.790466,-1.000000,0.000000,0.000000
482149029.167997,0.049255,0.000244,-1.070679,0.057997,0.019538,-0.000045,0.998319,0.001088,-0.057954,0.000045,0.999809,0.019537,0.057964,-0.019506,0.998128,0.057954,-0.019537,-0.998128,-0.198792,0.004720,-0.053340,0.001002,0.004421,-0.009119,346.327667,350.790466,-1.000000,0.000000,0.000000
482149029.177804,0.132736,-0.015091,-1.047531,0.058030,0.019564,-0.000083,0.998317,0.001052,-0.057987,0.000083,0.999809,0.019563,0.057996,-0.019535,0.998126,0.057987,-0.019563,-0.998126,-0.075870,0.010148,-0.078931,0.002313,-0.000138,-0.002520,346.327667,350.790466,-1.000000,0.000000,0.000000
482149029.189931,0.110687,-0.000900,-1.063370,0.058034,0.019565,-0.000126,0.998317,0.001009,-0.057990,0.000126,0.999809,0.019564,0.057999,-0.019538,0.998125,0.057990,-0.019564,-0.998125,-0.008735,0.019808,-0.072553,0.003542,0.001036,-0.001282,346.327667,350.790466,-1.000000,0.000000,0.000000
482149029.197690,0.165512,-0.014816,-1.057114,0.058034,0.019565,-0.000126,0.998317,0.001009,-0.057990,0.000126,0.999809,0.019564,0.057999,-0.019538,0.998125,0.057990,-0.019564,-0.998125,-0.008735,0.019808,-0.072553,0.003542,0.001036,-0.001282,346.327667,350.790466,-1.000000,0.000000,0.000000
482149029.208081,0.052399,-0.009674,-1.063797,0.057999,0.019530,-0.000179,0.998319,0.000953,-0.057956,0.000179,0.999809,0.019529,0.057963,-0.019507,0.998128,0.057956,-0.019529,-0.998128,0.074781,0.004438,-0.049403,0.002328,-0.003644,-0.007450,346.327667,350.790466,-1.000000,0.000000,0.000000
482149029.219010,0.128830,-0.012177,-1.067169,0.057992,0.019542,-0.000229,0.998319,0.000904,-0.057948,0.000229,0.999809,0.019541,0.057955,-0.019522,0.998128,0.057948,-0.019541,-0.998128,0.107564,0.004725,-0.058985,-0.006317,-0.002519,-0.003794,346.327667,350.790466,-1.000000,0.000000,0.000000
482149029.227869,0.127548,-0.003159,-1.055420,0.057992,0.019542,-0.000229,0.998319,0.000904,-0.057948,0.000229,0.999809,0.019541,0.057955,-0.019522,0.998128,0.057948,-0.019541,-0.998128,0.107564,0.004725,-0.058985,-0.006317,-0.002519,-0.003794,346.327667,350.790466,-1.000000,0.000000,0.000000
482149029.238094,0.111938,-0.010834,-1.065323,0.057990,0.019509,-0.000258,0.998319,0.000873,-0.057947,0.000258,0.999810,0.019508,0.057953,-0.019490,0.998129,0.057947,-0.019508,-0.998129,-0.005548,0.009834,-0.065668,-0.000165,0.001031,0.001163,346.327667,350.790466,-1.000000,0.000000,0.000000
482149029.249328,0.031464,-0.002396,-1.069809,0.057954,0.019502,-0.000223,0.998321,0.000907,-0.057910,0.000223,0.999810,0.019501,0.057917,-0.019481,0.998131,0.057910,-0.019501,-0.998131,0.070920,0.007324,-0.069038,-0.005115,-0.001272,0.006061,346.327667,350.790466,-1.000000,0.000000,0.000000
482149029.257843,0.031464,-0.002396,-1.069809,0.057954,0.019502,-0.000223,0.998321,0.000907,-0.057910,0.000223,0.999810,0.019501,0.057917,-0.019481,0.998131,0.057910,-0.019501,-0.998131,0.070920,0.007324,-0.069038,-0.005115,-0.001272,0.006061,346.327667,350.790466,-1.000000,0.000000,0.000000
482149029.267648,-0.018936,-0.014160,-1.048630,0.057958,0.019542,-0.000226,0.998321,0.000907,-0.057915,0.000226,0.999809,0.019541,0.057921,-0.019521,0.998130,0.057915,-0.019541,-0.998130,0.069633,0.016382,-0.057290,0.007242,-0.000093,-0.001267,346.327667,350.790466,-1.000000,0.000000,0.000000
482149029.278085,-0.183670,-0.005066,-1.056686,0.057922,0.019634,-0.000130,0.998323,0.001007,-0.057878,0.000130,0.999807,0.019633,0.057887,-0.019608,0.998131,0.057878,-0.019633,-0.998131,-0.026414,0.017238,-0.071678,0.003518,-0.000056,0.006103,346.327667,350.790466,-1.000000,0.000000,0.000000
482149029.288006,-0.191330,-0.014908,-1.063614,0.057922,0.019634,-0.000130,0.998323,0.001007,-0.057878,0.000130,0.999807,0.019633,0.057887,-0.019608,0.998131,0.057878,-0.019633,-0.998131,-0.026414,0.017238,-0.071678,0.003518,-0.000056,0.006103,346.327667,350.790466,-1.000000,0.000000,0.000000
482149029.297752,-0.112259,-0.004547,-1.066925,0.057898,0.019657,-0.000126,0.998325,0.001012,-0.057854,0.000126,0.999807,0.019656,0.057863,-0.019630,0.998132,0.057854,-0.019656,-0.998132,-0.076791,0.005496,-0.050498,0.003521,-0.003530,0.004866,346.327667,350.790466,-1.000000,0.000000,0.000000
482149029.308136,-0.029022,-0.005096,-1.057510,0.057995,0.019711,0.000038,0.998319,0.001180,-0.057951,-0.000038,0.999806,0.019710,0.057963,-0.019674,0.998125,0.057951,-0.019710,-0.998125,-0.249281,0.004802,-0.065489,0.003524,0.006862,0.004883,346.327667,350.790466,-1.000000,0.000000,0.000000
482149029.318205,-0.088150,-0.015961,-1.070694,0.057995,0.019711,0.000038,0.998319,0.001180,-0.057951,-0.000038,0.999806,0.019710,0.057963,-0.019674,0.998125,0.057951,-0.019710,-0.998125,-0.249281,0.004802,-0.065489,0.003524,0.006862,0.004883,346.327667,350.790466,-1.000000,0.000000,0.000000
482149029.327879,-0.113312,-0.007355,-1.045395,0.057972,0.019780,0.000009,0.998320,0.001155,-0.057928,-0.000009,0.999804,0.019779,0.057940,-0.019745,0.998125,0.057928,-0.019779,-0.998125,-0.170187,0.015231,-0.068800,0.007256,-0.005908,-0.006200,346.327667,350.790466,-1.000000,0.000000,0.000000
482149029.338187,-0.095413,-0.006760,-1.056046,0.057912,0.019799,0.000097,0.998323,0.001243,-0.057869,-0.000097,0.999804,0.019798,0.057882,-0.019759,0.998128,0.057869,-0.019798,-0.998128,-0.086891,0.014702,-0.059383,-0.003894,-0.004750,0.003614,346.327667,350.790466,-1.000000,0.000000,0.000000
482149029.348278,-0.001099,-0.012558,-1.055374,0.057912,0.019799,0.000097,0.998323,0.001243,-0.057869,-0.000097,0.999804,0.019798,0.057882,-0.019759,0.998128,0.057869,-0.019798,-0.998128,-0.086891,0.014702,-0.059383,-0.003894,-0.004750,0.003614,346.327667,350.790466,-1.000000,0.000000,0.000000
482149029.357972,0.062088,0.000031,-1.063721,0.057911,0.019788,0.000139,0.998324,0.001284,-0.057867,-0.000139,0.999804,0.019786,0.057881,-0.019745,0.998128,0.057867,-0.019786,-0.998128,-0.146017,0.003826,-0.072566,-0.000186,-0.002435,0.001172,346.327667,350.790466,-1.000000,0.000000,0.000000
482149029.367537,0.062088,0.000031,-1.063721,0.057817,0.019802,0.000251,0.998329,0.001395,-0.057773,-0.000251,0.999804,0.019801,0.057790,-0.019753,0.998133,0.057773,-0.019801,-0.998133,-0.153187,0.013041,-0.057912,-0.003893,0.001024,0.003623,346.327667,350.790466,-1.000000,0.000000,0.000000
482149029.380837,0.134491,-0.005234,-1.049454,0.057821,0.019815,0.000298,0.998328,0.001442,-0.057777,-0.000298,0.999804,0.019814,0.057794,-0.019764,0.998133,0.057777,-0.019814,-0.998133,-0.058876,0.007256,-0.057241,-0.003898,-0.001275,0.004850,346.327667,350.790466,-1.000000,0.000000,0.000000
482149029.393131,0.134491,-0.005234,-1.049454,0.057830,0.019846,0.000265,0.998328,0.001412,-0.057786,-0.000265,0.999803,0.019845,0.057803,-0.019796,0.998132,0.057786,-0.019845,-0.998132,0.068068,0.011590,-0.080817,0.001040,-0.001251,0.003642,346.327667,350.790466,-1.000000,0.000000,0.000000
482149029.397523,0.115051,-0.019775,-1.054535,0.057830,0.019846,0.000265,0.998328,0.001412,-0.057786,-0.000265,0.999803,0.019845,0.057803,-0.019796,0.998132,0.057786,-0.019845,-0.998132,0.068068,0.011590,-0.080817,0.001040,-0.001251,0.003642,346.327667,350.790466,-1.000000,0.000000,0.000000
482149029.408823,-0.001205,-0.001801,-1.076920,0.057766,0.019837,0.000349,0.998332,0.001494,-0.057722,-0.000349,0.999803,0.019835,0.057741,-0.019782,0.998136,0.057722,-0.019835,-0.998136,0.068132,0.011580,-0.080813,-0.000210,-0.002373,0.008558,346.327667,350.790466,-1.000000,0.000000,0.000000
482149029.417952,0.102188,-0.016647,-1.068359,0.057766,0.019837,0.000349,0.998332,0.001494,-0.057722,-0.000349,0.999803,0.019835,0.057741,-0.019782,0.998136,0.057722,-0.019835,-0.998136,0.068132,0.011580,-0.080813,-0.000210,-0.002373,0.008558,346.327667,350.790466,-1.000000,0.000000,0.000000
482149029.427938,0.145538,-0.008484,-1.058212,0.057774,0.019843,0.000414,0.998331,0.001559,-0.057730,-0.000414,0.999803,0.019841,0.057750,-0.019784,0.998135,0.057730,-0.019841,-0.998135,0.057321,0.000066,-0.056400,-0.000193,-0.001259,0.003636,346.327667,350.790466,-1.000000,0.000000,0.000000
482149029.438051,0.119812,-0.009949,-1.059387,0.057762,0.019883,0.000417,0.998332,0.001564,-0.057718,-0.000417,0.999802,0.019882,0.057738,-0.019825,0.998135,0.057718,-0.019882,-0.998135,-0.058923,0.018081,-0.078785,0.004757,0.003353,-0.001258,346.327667,350.790466,-1.000000,0.000000,0.000000
482149029.456298,0.005692,-0.004776,-1.059219,0.057692,0.019935,0.000449,0.998336,0.001598,-0.057648,-0.000449,0.999801,0.019934,0.057668,-0.019875,0.998138,0.057648,-0.019934,-0.998138,0.087890,0.011450,-0.060074,-0.003879,-0.005947,-0.001312,346.327667,350.790466,-1.000000,0.000000,0.000000
482149029.469397,-0.097214,-0.009827,-1.071747,0.057673,0.019952,0.000460,0.998337,0.001609,-0.057630,-0.000459,0.999801,0.019951,0.057651,-0.019891,0.998139,0.057630,-0.019951,-0.998139,0.062182,0.010002,-0.061249,0.005965,-0.003504,0.006122,346.327667,350.790466,-1.000000,0.000000,0.000000
482149029.479300,-0.097214,-0.009827,-1.071747,0.057673,0.019952,0.000460,0.998337,0.001609,-0.057630,-0.000459,0.999801,0.019951,0.057651,-0.019891,0.998139,0.057630,-0.019951,-0.998139,0.062182,0.010002,-0.061249,0.005965,-0.003504,0.006122,346.327667,350.790466,-1.000000,0.000000,0.000000
482149029.487852,-0.131790,-0.015106,-1.069061,0.057660,0.019954,0.000446,0.998338,0.001595,-0.057616,-0.000446,0.999801,0.019952,0.057637,-0.019893,0.998139,0.057616,-0.019952,-0.998139,-0.051925,0.015176,-0.061080,-0.002680,-0.004746,0.003615,346.327667,350.790466,-1.000000,0.000000,0.000000
482149029.497852,-0.035767,-0.010956,-1.063446,0.057612,0.019913,0.000514,0.998340,0.001660,-0.057569,-0.000514,0.999802,0.019912,0.057591,-0.019849,0.998143,0.057569,-0.019912,-0.998143,-0.051877,0.015136,-0.061076,-0.006385,-0.007071,0.004826,346.327667,350.790466,-1.000000,0.000000,0.000000
482149029.508104,0.013779,-0.008972,-1.069000,0.057612,0.019913,0.000514,0.998340,0.001660,-0.057569,-0.000514,0.999802,0.019912,0.057591,-0.019849,0.998143,0.057569,-0.019912,-0.998143,-0.051877,0.015136,-0.061076,-0.006385,-0.007071,0.004826,346.327667,350.790466,-1.000000,0.000000,0.000000
482149029.517845,-0.088577,-0.006790,-1.040329,0.057580,0.019846,0.000558,0.998342,0.001699,-0.057537,-0.000558,0.999803,0.019844,0.057560,-0.019779,0.998146,0.057537,-0.019844,-0.998146,-0.189327,0.004738,-0.070915,-0.002675,-0.001291,0.002389,346.327667,350.790466,-1.000000,0.000000,0.000000
482149029.527928,-0.094162,-0.012878,-1.072708,0.057556,0.019821,0.000577,0.998343,0.001716,-0.057513,-0.000577,0.999803,0.019819,0.057536,-0.019753,0.998148,0.057513,-0.019819,-0.998148,-0.093280,0.008864,-0.065298,-0.006379,0.001002,0.003607,346.327667,350.790466,-1.000000,0.000000,0.000000
482149029.539105,-0.121185,-0.007263,-1.053284,0.057556,0.019821,0.000577,0.998343,0.001716,-0.057513,-0.000577,0.999803,0.019819,0.057536,-0.019753,0.998148,0.057513,-0.019819,-0.998148,-0.093280,0.008864,-0.065298,-0.006379,0.001002,0.003607,346.327667,350.790466,-1.000000,0.000000,0.000000
482149029.547826,-0.006897,-0.014542,-1.069138,0.057576,0.019915,0.000619,0.998342,0.001764,-0.057533,-0.000619,0.999802,0.019914,0.057557,-0.019845,0.998145,0.057533,-0.019914,-0.998145,-0.146110,0.013124,-0.042184,0.007193,0.009171,0.002451,346.327667,350.790466,-1.000000,0.000000,0.000000
482149029.558097,0.100082,-0.009674,-1.074249,0.057581,0.019932,0.000623,0.998342,0.001769,-0.057537,-0.000623,0.999801,0.019930,0.057561,-0.019861,0.998144,0.057537,-0.019930,-0.998144,-0.151699,0.007052,-0.074564,0.001036,-0.001297,-0.001287,346.327667,350.790466,-1.000000,0.000000,0.000000
482149029.569233,0.122910,-0.016937,-1.054474,0.057662,0.019953,0.000645,0.998337,0.001794,-0.057619,-0.000645,0.999801,0.019952,0.057643,-0.019881,0.998139,0.057619,-0.019952,-0.998139,-0.178804,0.012688,-0.055144,-0.001444,0.007965,0.003640,346.327667,350.790466,-1.000000,0.000000,0.000000
482149029.577239,0.122910,-0.016937,-1.054474,0.057662,0.019953,0.000645,0.998337,0.001794,-0.057619,-0.000645,0.999801,0.019952,0.057643,-0.019881,0.998139,0.057619,-0.019952,-0.998139,-0.178804,0.012688,-0.055144,-0.001444,0.007965,0.003640,346.327667,350.790466,-1.000000,0.000000,0.000000
482149029.588688,0.116898,-0.012863,-1.057465,0.057677,0.019931,0.000712,0.998336,0.001859,-0.057633,-0.000712,0.999801,0.019929,0.057659,-0.019855,0.998139,0.057633,-0.019929,-0.998139,-0.064530,0.005388,-0.070999,-0.002687,0.001049,0.006086,346.327667,350.790466,-1.000000,0.000000,0.000000
482149029.600281,0.053452,-0.011673,-1.063797,0.057685,0.019956,0.000703,0.998336,0.001853,-0.057642,-0.000703,0.999801,0.019955,0.057667,-0.019881,0.998138,0.057642,-0.019955,-0.998138,0.065268,0.003018,-0.056336,-0.006379,-0.000153,0.003605,346.327667,350.790466,-1.000000,0.000000,0.000000
482149029.607521,0.053452,-0.011673,-1.063797,0.057685,0.019956,0.000703,0.998336,0.001853,-0.057642,-0.000703,0.999801,0.019955,0.057667,-0.019881,0.998138,0.057642,-0.019955,-0.998138,0.065268,0.003018,-0.056336,-0.006379,-0.000153,0.003605,346.327667,350.790466,-1.000000,0.000000,0.000000
482149029.618117,0.076187,-0.009140,-1.063629,0.057679,0.019959,0.000679,0.998336,0.001828,-0.057635,-0.000678,0.999801,0.019958,0.057660,-0.019885,0.998138,0.057635,-0.019958,-0.998138,0.059262,0.007094,-0.059326,0.001036,-0.001297,-0.001287,346.327667,350.790466,-1.000000,0.000000,0.000000
482149029.628117,0.131989,-0.016281,-1.076950,0.057655,0.020043,0.000643,0.998338,0.001797,-0.057611,-0.000643,0.999799,0.020042,0.057636,-0.019971,0.998138,0.057611,-0.020042,-0.998138,-0.004160,0.008369,-0.065659,0.009666,-0.000070,-0.000015,346.327667,350.790466,-1.000000,0.000000,0.000000
482149029.638288,0.157623,-0.015656,-1.059128,0.057655,0.020043,0.000643,0.998338,0.001797,-0.057611,-0.000643,0.999799,0.020042,0.057636,-0.019971,0.998138,0.057611,-0.020042,-0.998138,-0.004160,0.008369,-0.065659,0.009666,-0.000070,-0.000015,346.327667,350.790466,-1.000000,0.000000,0.000000
482149029.648101,0.125732,-0.004257,-1.076004,0.057670,0.020036,0.000667,0.998337,0.001820,-0.057626,-0.000667,0.999799,0.020035,0.057651,-0.019963,0.998137,0.057626,-0.020035,-0.998137,0.018561,0.010895,-0.065492,-0.005145,0.002165,0.003614,346.327667,350.790466,-1.000000,0.000000,0.000000
482149029.657984,-0.022034,-0.011093,-1.044739,0.057696,0.020116,0.000661,0.998335,0.001820,-0.057652,-0.000661,0.999797,0.020115,0.057677,-0.020043,0.998134,0.057652,-0.020115,-0.998134,0.074336,0.003834,-0.078816,0.004734,0.006823,-0.000026,346.327667,350.790466,-1.000000,0.000000,0.000000
482149029.668031,-0.118790,-0.011551,-1.095413,0.057696,0.020116,0.000661,0.998335,0.001820,-0.057652,-0.000661,0.999797,0.020115,0.057677,-0.020043,0.998134,0.057652,-0.020115,-0.998134,0.074336,0.003834,-0.078816,0.004734,0.006823,-0.000026,346.327667,350.790466,-1.000000,0.000000,0.000000
482149029.678274,-0.172852,-0.009079,-1.031128,0.057689,0.020144,0.000653,0.998335,0.001814,-0.057646,-0.000653,0.999797,0.020143,0.057670,-0.020071,0.998134,0.057646,-0.020143,-0.998134,0.099978,0.004487,-0.060994,0.002281,-0.003629,-0.004979,346.327667,350.790466,-1.000000,0.000000,0.000000
482149029.687721,-0.172852,-0.009079,-1.031128,0.057647,0.020120,0.000623,0.998338,0.001781,-0.057604,-0.000623,0.999797,0.020119,0.057628,-0.020050,0.998137,0.057604,-0.020119,-0.998137,-0.079637,0.009026,-0.046602,-0.002660,-0.003643,-0.002539,346.327667,350.790466,-1.000000,0.000000,0.000000
482149029.697898,-0.027634,-0.018112,-1.067322,0.057647,0.020120,0.000623,0.998338,0.001781,-0.057604,-0.000623,0.999797,0.020119,0.057628,-0.020050,0.998137,0.057604,-0.020119,-0.998137,-0.079637,0.009026,-0.046602,-0.002660,-0.003643,-0.002539,346.327667,350.790466,-1.000000,0.000000,0.000000
482149029.707849,0.024857,-0.021011,-1.053223,0.057647,0.020140,0.000586,0.998338,0.001745,-0.057603,-0.000586,0.999797,0.020139,0.057626,-0.020072,0.998136,0.057603,-0.020139,-0.998136,-0.176393,0.008588,-0.097277,0.004749,0.002162,-0.004958,346.327667,350.790466,-1.000000,0.000000,0.000000
482149029.718178,-0.064636,-0.015167,-1.035248,0.057650,0.020165,0.000553,0.998338,0.001714,-0.057607,-0.000553,0.999797,0.020163,0.057629,-0.020098,0.998136,0.057607,-0.020163,-0.998136,-0.085240,0.002051,-0.069186,0.005991,0.003305,-0.007413,346.327667,350.790466,-1.000000,0.000000,0.000000
482149029.729413,-0.072205,-0.017288,-1.075485,0.057650,0.020165,0.000553,0.998338,0.001714,-0.057607,-0.000553,0.999797,0.020163,0.057629,-0.020098,0.998136,0.057607,-0.020163,-0.998136,-0.085240,0.002051,-0.069186,0.005991,0.003305,-0.007413,346.327667,350.790466,-1.000000,0.000000,0.000000
482149029.738056,-0.051483,-0.012741,-1.078278,0.057649,0.020181,0.000552,0.998338,0.001714,-0.057605,-0.000552,0.999796,0.020179,0.057628,-0.020114,0.998135,0.057605,-0.020179,-0.998135,-0.032749,-0.000832,-0.055087,0.003491,-0.001248,0.002417,346.327667,350.790466,-1.000000,0.000000,0.000000
482149029.748045,-0.019836,-0.018143,-1.050598,0.057584,0.020227,0.000584,0.998342,0.001747,-0.057541,-0.000584,0.999795,0.020225,0.057564,-0.020158,0.998138,0.057541,-0.020225,-0.998138,-0.122177,0.005058,-0.037110,0.002258,0.001053,0.002415,346.327667,350.790466,-1.000000,0.000000,0.000000
482149029.758440,0.030502,-0.005295,-1.064926,0.057554,0.020215,0.000632,0.998343,0.001794,-0.057511,-0.000632,0.999795,0.020214,0.057535,-0.020144,0.998140,0.057511,-0.020214,-0.998140,-0.129715,0.002926,-0.077345,-0.002693,-0.005869,0.007306,346.327667,350.790466,-1.000000,0.000000,0.000000
482149029.768004,0.131866,-0.016144,-1.059311,0.057554,0.020215,0.000632,0.998343,0.001794,-0.057511,-0.000632,0.999795,0.020214,0.057535,-0.020144,0.998140,0.057511,-0.020214,-0.998140,-0.129715,0.002926,-0.077345,-0.002693,-0.005869,0.007306,346.327667,350.790466,-1.000000,0.000000,0.000000
482149029.778061,0.143555,-0.009415,-1.055298,0.057495,0.020170,0.000651,0.998347,0.001809,-0.057452,-0.000651,0.999796,0.020169,0.057476,-0.020098,0.998145,0.057452,-0.020169,-0.998145,-0.077288,0.002026,-0.052454,-0.003910,-0.003610,0.002379,346.327667,350.790466,-1.000000,0.000000,0.000000
482149029.788635,0.196457,-0.016556,-1.080414,0.057494,0.020165,0.000597,0.998347,0.001755,-0.057451,-0.000597,0.999797,0.020164,0.057475,-0.020096,0.998145,0.057451,-0.020164,-0.998145,-0.026949,0.014869,-0.066781,0.001056,0.000960,-0.007439,346.327667,350.790466,-1.000000,0.000000,0.000000
482149029.797716,0.196457,-0.016556,-1.080414,0.057494,0.020165,0.000597,0.998347,0.001755,-0.057451,-0.000597,0.999797,0.020164,0.057475,-0.020096,0.998145,0.057451,-0.020164,-0.998145,-0.026949,0.014869,-0.066781,0.001056,0.000960,-0.007439,346.327667,350.790466,-1.000000,0.000000,0.000000
482149029.809257,0.060440,-0.014771,-1.058853,0.057537,0.020152,0.000531,0.998344,0.001689,-0.057494,-0.000531,0.999797,0.020151,0.057516,-0.020087,0.998142,0.057494,-0.020151,-0.998142,0.086061,0.010736,-0.057155,-0.000192,0.002148,-0.002519,346.327667,350.790466,-1.000000,0.000000,0.000000
482149029.817932,0.005905,-0.009827,-1.070999,0.057535,0.020214,0.000605,0.998344,0.001766,-0.057492,-0.000605,0.999795,0.020213,0.057516,-0.020144,0.998141,0.057492,-0.020213,-0.998141,0.086063,0.010798,-0.057157,0.005926,0.000008,0.012278,346.327667,350.790466,-1.000000,0.000000,0.000000
482149029.827964,0.112915,-0.011810,-1.059448,0.057535,0.020214,0.000605,0.998344,0.001766,-0.057492,-0.000605,0.999795,0.020213,0.057516,-0.020144,0.998141,0.057492,-0.020213,-0.998141,0.086063,0.010798,-0.057157,0.005926,0.000008,0.012278,346.327667,350.790466,-1.000000,0.000000,0.000000
482149029.837822,0.109970,-0.012772,-1.063385,0.057605,0.020214,0.000670,0.998340,0.001832,-0.057561,-0.000670,0.999795,0.020212,0.057586,-0.020140,0.998137,0.057561,-0.020212,-0.998137,0.002879,0.005442,-0.060716,-0.002683,0.001039,0.004854,346.327667,350.790466,-1.000000,0.000000,0.000000
482149029.848338,0.064407,-0.018753,-1.047058,0.057625,0.020227,0.000728,0.998339,0.001892,-0.057582,-0.000728,0.999795,0.020226,0.057608,-0.020150,0.998136,0.057582,-0.020226,-0.998136,-0.051677,0.010399,-0.072863,-0.003912,0.003329,0.003621,346.327667,350.790466,-1.000000,0.000000,0.000000
482149029.857335,-0.015839,-0.010468,-1.080963,0.057625,0.020227,0.000728,0.998339,0.001892,-0.057582,-0.000728,0.999795,0.020226,0.057608,-0.020150,0.998136,0.057582,-0.020226,-0.998136,-0.051677,0.010399,-0.072863,-0.003912,0.003329,0.003621,346.327667,350.790466,-1.000000,0.000000,0.000000
482149029.867948,-0.187607,-0.008911,-1.047897,0.057645,0.020252,0.000714,0.998338,0.001879,-0.057602,-0.000714,0.999795,0.020251,0.057628,-0.020176,0.998134,0.057602,-0.020251,-0.998134,0.052368,0.007479,-0.065251,-0.002651,0.000955,-0.004994,346.327667,350.790466,-1.000000,0.000000,0.000000
482149029.878130,-0.199310,-0.008896,-1.077362,0.057666,0.020233,0.000732,0.998337,0.001897,-0.057622,-0.000732,0.999795,0.020232,0.057649,-0.020156,0.998133,0.057622,-0.020232,-0.998133,0.006785,0.001479,-0.048925,-0.002690,0.004524,0.007322,346.327667,350.790466,-1.000000,0.000000,0.000000
482149029.889314,-0.161850,-0.007416,-1.049667,0.057666,0.020233,0.000732,0.998337,0.001897,-0.057622,-0.000732,0.999795,0.020232,0.057649,-0.020156,0.998133,0.057622,-0.020232,-0.998133,0.006785,0.001479,-0.048925,-0.002690,0.004524,0.007322,346.327667,350.790466,-1.000000,0.000000,0.000000
482149029.898042,0.007782,-0.006912,-1.071945,0.057636,0.020264,0.000706,0.998338,0.001872,-0.057592,-0.000705,0.999794,0.020263,0.057618,-0.020188,0.998135,0.057592,-0.020263,-0.998135,-0.245199,0.011351,-0.049763,0.003491,-0.002403,0.002415,346.327667,350.790466,-1.000000,0.000000,0.000000
482149029.907562,0.007782,-0.006912,-1.071945,0.057624,0.020302,0.000667,0.998339,0.001835,-0.057580,-0.000667,0.999794,0.020301,0.057606,-0.020228,0.998134,0.057580,-0.020301,-0.998134,-0.245187,0.011389,-0.049763,0.009668,-0.005855,-0.001256,346.327667,350.790466,-1.000000,0.000000,0.000000
482149029.919415,-0.023880,-0.004379,-1.083939,0.057624,0.020302,0.000667,0.998339,0.001835,-0.057580,-0.000667,0.999794,0.020301,0.057606,-0.020228,0.998134,0.057580,-0.020301,-0.998134,-0.245187,0.011389,-0.049763,0.009668,-0.005855,-0.001256,346.327667,350.790466,-1.000000,0.000000,0.000000
482149029.928000,-0.070496,-0.014160,-1.047058,0.057606,0.020273,0.000547,0.998340,0.001714,-0.057562,-0.000547,0.999794,0.020272,0.057585,-0.020207,0.998136,0.057562,-0.020272,-0.998136,-0.219412,0.012856,-0.051531,0.004772,-0.003674,-0.012354,346.327667,350.790466,-1.000000,0.000000,0.000000
482149029.937309,-0.110397,0.001343,-1.068878,0.057623,0.020316,0.000479,0.998340,0.001648,-0.057579,-0.000478,0.999794,0.020314,0.057600,-0.020253,0.998134,0.057579,-0.020314,-0.998134,-0.049797,0.013402,-0.073811,0.004752,0.000997,-0.006192,346.327667,350.790466,-1.000000,0.000000,0.000000
482149029.948457,0.009781,-0.016632,-1.040604,0.057604,0.020350,0.000404,0.998341,0.001574,-0.057560,-0.000404,0.999793,0.020348,0.057581,-0.020291,0.998135,0.057560,-0.020348,-0.998135,-0.128056,0.006188,-0.048923,0.007211,0.003345,-0.003715,346.327667,350.790466,-1.000000,0.000000,0.000000
482149029.958728,0.050491,-0.010681,-1.068726,0.057604,0.020350,0.000404,0.998341,0.001574,-0.057560,-0.000404,0.999793,0.020348,0.057581,-0.020291,0.998135,0.057560,-0.020348,-0.998135,-0.128056,0.006188,-0.048923,0.007211,0.003345,-0.003715,346.327667,350.790466,-1.000000,0.000000,0.000000
482149029.968048,0.099136,-0.011658,-1.074249,0.057608,0.020351,0.000469,0.998340,0.001640,-0.057564,-0.000469,0.999793,0.020350,0.057585,-0.020289,0.998134,0.057564,-0.020350,-0.998134,-0.167961,0.021693,-0.070744,-0.003921,0.002195,0.006081,346.327667,350.790466,-1.000000,0.000000,0.000000
482149029.978475,0.112717,-0.011642,-1.033966,0.057604,0.020410,0.000615,0.998340,0.001788,-0.057560,-0.000614,0.999792,0.020408,0.057584,-0.020339,0.998133,0.057560,-0.020408,-0.998133,-0.007068,0.009727,-0.070592,-0.000220,0.002221,0.006098,346.327667,350.790466,-1.000000,0.000000,0.000000
482149029.989319,0.109970,-0.007950,-1.079056,0.057604,0.020410,0.000615,0.998340,0.001788,-0.057560,-0.000614,0.999792,0.020408,0.057584,-0.020339,0.998133,0.057560,-0.020408,-0.998133,-0.007068,0.009727,-0.070592,-0.000220,0.002221,0.006098,346.327667,350.790466,-1.000000,0.000000,0.000000
482149029.997779,0.090958,-0.009338,-1.048828,0.057641,0.020403,0.000632,0.998338,0.001807,-0.057597,-0.000632,0.999792,0.020401,0.057622,-0.020331,0.998131,0.057597,-0.020401,-0.998131,-0.007106,0.009720,-0.070594,-0.005129,0.003278,-0.001309,346.327667,350.790466,-1.000000,0.000000,0.000000
482149030.007939,0.134750,-0.007416,-1.078873,0.057655,0.020473,0.000681,0.998337,0.001860,-0.057611,-0.000681,0.999790,0.020472,0.057637,-0.020399,0.998129,0.057611,-0.020472,-0.998129,0.055105,0.008829,-0.035837,0.003507,-0.001290,-0.002508,346.327667,350.790466,-1.000000,0.000000,0.000000
482149030.017465,0.134750,-0.007416,-1.078873,0.057655,0.020473,0.000681,0.998337,0.001860,-0.057611,-0.000681,0.999790,0.020472,0.057637,-0.020399,0.998129,0.057611,-0.020472,-0.998129,0.055105,0.008829,-0.035837,0.003507,-0.001290,-0.002508,346.327667,350.790466,-1.000000,0.000000,0.000000
482149030.027497,0.161469,-0.012726,-1.053223,0.057671,0.020532,0.000696,0.998336,0.001878,-0.057627,-0.000696,0.999789,0.020531,0.057653,-0.020457,0.998127,0.057627,-0.020531,-0.998127,0.052343,0.012581,-0.080929,0.003488,0.004536,0.003657,346.327667,350.790466,-1.000000,0.000000,0.000000
482149030.038115,0.128754,-0.005325,-1.078918,0.057679,0.020620,0.000828,0.998336,0.002015,-0.057634,-0.000828,0.999787,0.020618,0.057664,-0.020536,0.998125,0.057634,-0.020618,-0.998125,0.077116,0.013202,-0.080748,0.001021,0.002209,0.003641,346.327667,350.790466,-1.000000,0.000000,0.000000
482149030.047883,0.070984,-0.002045,-1.051880,0.057679,0.020620,0.000828,0.998336,0.002015,-0.057634,-0.000828,0.999787,0.020618,0.057664,-0.020536,0.998125,0.057634,-0.020618,-0.998125,0.077116,0.013202,-0.080748,0.001021,0.002209,0.003641,346.327667,350.790466,-1.000000,0.000000,0.000000
482149030.057783,-0.037781,-0.008957,-1.066406,0.057710,0.020596,0.000865,0.998334,0.002051,-0.057666,-0.000864,0.999788,0.020594,0.057696,-0.020510,0.998123,0.057666,-0.020594,-0.998123,0.103802,0.007868,-0.055099,-0.001445,0.004501,0.003634,346.327667,350.790466,-1.000000,0.000000,0.000000
482149030.068326,-0.140976,-0.011765,-1.042664,0.057713,0.020598,0.000863,0.998334,0.002050,-0.057669,-0.000863,0.999788,0.020596,0.057699,-0.020512,0.998123,0.057669,-0.020596,-0.998123,0.013315,0.018552,-0.053757,-0.001431,-0.001315,-0.001300,346.327667,350.790466,-1.000000,0.000000,0.000000
482149030.079008,-0.127121,-0.004272,-1.068024,0.057645,0.020600,0.000838,0.998338,0.002024,-0.057601,-0.000838,0.999787,0.020599,0.057630,-0.020516,0.998127,0.057601,-0.020599,-0.998127,0.013383,0.018554,-0.053753,0.002259,-0.010505,0.001164,346.327667,350.790466,-1.000000,0.000000,0.000000
482149030.088101,-0.185379,-0.014999,-1.061600,0.057645,0.020600,0.000838,0.998338,0.002024,-0.057601,-0.000838,0.999787,0.020599,0.057630,-0.020516,0.998127,0.057601,-0.020599,-0.998127,0.013383,0.018554,-0.053753,0.002259,-0.010505,0.001164,346.327667,350.790466,-1.000000,0.000000,0.000000
482149030.098051,0.044586,-0.014465,-1.059937,0.057619,0.020620,0.000932,0.998339,0.002118,-0.057575,-0.000932,0.999787,0.020618,0.057606,-0.020530,0.998128,0.057575,-0.020618,-0.998128,-0.198551,0.008854,-0.044535,0.000998,0.006891,0.011035,346.327667,350.790466,-1.000000,0.000000,0.000000
482149030.109184,-0.085449,0.000748,-1.086349,0.057645,0.020600,0.000933,0.998337,0.002118,-0.057601,-0.000933,0.999787,0.020598,0.057633,-0.020510,0.998127,0.057601,-0.020598,-0.998127,-0.184722,0.016326,-0.069897,-0.001431,-0.000160,-0.001298,346.327667,350.790466,-1.000000,0.000000,0.000000
482149030.122375,-0.075638,-0.014847,-1.021606,0.057626,0.020564,0.000897,0.998339,0.002080,-0.057582,-0.000897,0.999788,0.020562,0.057612,-0.020476,0.998129,0.057582,-0.020562,-0.998129,-0.012996,0.006097,-0.061808,0.004732,-0.000106,-0.000039,346.327667,350.790466,-1.000000,0.000000,0.000000
482149030.127674,-0.075638,-0.014847,-1.021606,0.057626,0.020564,0.000897,0.998339,0.002080,-0.057582,-0.000897,0.999788,0.020562,0.057612,-0.020476,0.998129,0.057582,-0.020562,-0.998129,-0.012996,0.006097,-0.061808,0.004732,-0.000106,-0.000039,346.327667,350.790466,-1.000000,0.000000,0.000000
482149030.138057,-0.157959,0.001282,-1.069229,0.057630,0.020567,0.000879,0.998338,0.002062,-0.057586,-0.000879,0.999788,0.020565,0.057617,-0.020481,0.998129,0.057586,-0.020565,-0.998129,-0.143036,0.021313,-0.088221,-0.001419,-0.000192,-0.004991,346.327667,350.790466,-1.000000,0.000000,0.000000
482149030.147959,-0.044632,-0.015686,-1.055679,0.057630,0.020567,0.000879,0.998338,0.002062,-0.057586,-0.000879,0.999788,0.020565,0.057617,-0.020481,0.998129,0.057586,-0.020565,-0.998129,-0.143036,0.021313,-0.088221,-0.001419,-0.000192,-0.004991,346.327667,350.790466,-1.000000,0.000000,0.000000
482149030.157338,-0.001953,-0.016541,-1.058319,0.057633,0.020571,0.000925,0.998338,0.002109,-0.057589,-0.000925,0.999788,0.020570,0.057620,-0.020482,0.998128,0.057589,-0.020570,-0.998128,-0.133227,0.005723,-0.023478,-0.000222,-0.002398,0.006090,346.327667,350.790466,-1.000000,0.000000,0.000000
482149030.168194,0.000702,0.003082,-1.082779,0.057654,0.020536,0.000880,0.998337,0.002062,-0.057610,-0.000880,0.999789,0.020535,0.057640,-0.020450,0.998128,0.057610,-0.020535,-0.998128,-0.215569,0.021816,-0.071101,-0.005171,0.005468,-0.011026,0.000000,0.000000,-1.000000,0.000000,0.000000
482149030.178118,0.132782,-0.020004,-1.037735,0.057654,0.020536,0.000880,0.998337,0.002062,-0.057610,-0.000880,0.999789,0.020535,0.057640,-0.020450,0.998128,0.057610,-0.020535,-0.998128,-0.215569,0.021816,-0.071101,-0.005171,0.005468,-0.011026,346.434265,350.897064,-1.000000,0.000000,0.000000
482149030.187866,0.173340,-0.014862,-1.043320,0.057609,0.020477,0.000986,0.998339,0.002164,-0.057565,-0.000986,0.999790,0.020475,0.057598,-0.020384,0.998132,0.057565,-0.020475,-0.998132,-0.059519,0.003935,-0.060187,0.003400,-0.004706,0.007463,346.434265,350.897064,-1.000000,0.000000,0.000000
482149030.198072,0.053452,-0.010727,-1.067719,0.057653,0.020522,0.000985,0.998337,0.002165,-0.057609,-0.000984,0.999789,0.020520,0.057641,-0.020430,0.998128,0.057609,-0.020520,-0.998128,-0.056907,0.023603,-0.084651,0.003435,0.007913,-0.002366,346.434265,350.897064,-1.000000,0.000000,0.000000
482149030.208315,0.070221,-0.009018,-1.061722,0.057653,0.020522,0.000985,0.998337,0.002165,-0.057609,-0.000984,0.999789,0.020520,0.057641,-0.020430,0.998128,0.057609,-0.020520,-0.998128,-0.056907,0.023603,-0.084651,0.003435,0.007913,-0.002366,346.434265,350.897064,-1.000000,0.000000,0.000000
482149030.218352,0.123932,-0.013077,-1.070160,0.057572,0.020555,0.000924,0.998342,0.002105,-0.057528,-0.000924,0.999788,0.020554,0.057559,-0.020467,0.998132,0.057528,-0.020554,-0.998132,0.115812,0.005692,-0.045187,0.005926,-0.006000,-0.010994,346.434265,350.897064,-1.000000,0.000000,0.000000
482149030.227828,0.123932,-0.013077,-1.070160,0.057553,0.020536,0.000950,0.998343,0.002129,-0.057509,-0.000949,0.999789,0.020534,0.057541,-0.020446,0.998134,0.057509,-0.020534,-0.998134,-0.004058,0.009808,-0.069585,-0.005217,-0.002500,0.002502,346.434265,350.897064,-1.000000,0.000000,0.000000
482149030.241143,0.090897,-0.004440,-1.055679,0.057594,0.020509,0.000994,0.998340,0.002173,-0.057550,-0.000994,0.999789,0.020508,0.057582,-0.020416,0.998132,0.057550,-0.020508,-0.998132,0.012671,0.011490,-0.063590,-0.005225,-0.002479,0.004965,346.432617,350.895416,-1.000000,0.000000,0.000000
482149030.247817,0.090897,-0.004440,-1.055679,0.057594,0.020509,0.000994,0.998340,0.002173,-0.057550,-0.000994,0.999789,0.020508,0.057582,-0.020416,0.998132,0.057550,-0.020508,-0.998132,0.012671,0.011490,-0.063590,-0.005225,-0.002479,0.004965,346.432617,350.895416,-1.000000,0.000000,0.000000
482149030.257470,0.007721,-0.002960,-1.074890,0.057591,0.020491,0.001044,0.998340,0.002222,-0.057547,-0.001044,0.999790,0.020490,0.057581,-0.020395,0.998132,0.057547,-0.020490,-0.998132,0.066385,0.007413,-0.072027,0.002184,-0.000138,0.002540,346.432617,350.895416,-1.000000,0.000000,0.000000
482149030.268829,-0.046814,-0.007690,-1.052750,0.057644,0.020596,0.001082,0.998337,0.002267,-0.057600,-0.001082,0.999787,0.020594,0.057635,-0.020498,0.998127,0.057600,-0.020594,-0.998127,0.033296,0.016154,-0.057552,0.004647,0.004509,0.003789,346.432617,350.895416,-1.000000,0.000000,0.000000
482149030.278032,-0.200439,-0.006760,-1.063675,0.057644,0.020596,0.001082,0.998337,0.002267,-0.057600,-0.001082,0.999787,0.020594,0.057635,-0.020498,0.998127,0.057600,-0.020594,-0.998127,0.033296,0.016154,-0.057552,0.004647,0.004509,0.003789,346.432617,350.895416,-1.000000,0.000000,0.000000
482149030.288092,-0.068497,-0.013229,-1.052917,0.057665,0.020654,0.001091,0.998336,0.002280,-0.057621,-0.001091,0.999786,0.020652,0.057656,-0.020555,0.998125,0.057621,-0.020652,-0.998125,-0.049900,0.017692,-0.076765,0.000946,0.002174,0.003769,346.430298,350.893097,-1.000000,0.000000,0.000000
482149030.298242,-0.054581,-0.011612,-1.066528,0.057617,0.020666,0.001080,0.998339,0.002268,-0.057573,-0.001080,0.999786,0.020664,0.057608,-0.020568,0.998127,0.057573,-0.020664,-0.998127,-0.258013,0.013905,-0.065548,-0.001501,-0.001360,-0.002403,346.430298,350.893097,-1.000000,0.000000,0.000000
482149030.308036,-0.077667,-0.006042,-1.044174,0.057617,0.020666,0.001080,0.998339,0.002268,-0.057573,-0.001080,0.999786,0.020664,0.057608,-0.020568,0.998127,0.057573,-0.020664,-0.998127,-0.258013,0.013905,-0.065548,-0.001501,-0.001360,-0.002403,346.430298,350.893097,-1.000000,0.000000,0.000000
482149030.318290,-0.077667,-0.006042,-1.044174,0.057639,0.020679,0.001044,0.998338,0.002234,-0.057594,-0.001044,0.999786,0.020678,0.057628,-0.020583,0.998126,0.057594,-0.020678,-0.998126,-0.258034,0.013918,-0.065549,0.002216,0.000934,-0.007307,346.430298,350.893097,-1.000000,0.000000,0.000000
482149030.329351,-0.067566,-0.004456,-1.073471,0.057613,0.020680,0.001057,0.998339,0.002246,-0.057568,-0.001057,0.999786,0.020679,0.057603,-0.020584,0.998127,0.057568,-0.020679,-0.998127,-0.112149,0.009067,-0.068401,0.002194,-0.004788,-0.001161,346.430298,350.893097,-1.000000,0.000000,0.000000
482149030.338144,-0.067566,-0.004456,-1.073471,0.057613,0.020680,0.001057,0.998339,0.002246,-0.057568,-0.001057,0.999786,0.020679,0.057603,-0.020584,0.998127,0.057568,-0.020679,-0.998127,-0.112149,0.009067,-0.068401,0.002194,-0.004788,-0.001161,346.426910,350.889709,-1.000000,0.000000,0.000000
482149030.347741,-0.079544,-0.005157,-1.063751,0.057578,0.020714,0.001056,0.998341,0.002246,-0.057533,-0.001056,0.999785,0.020712,0.057568,-0.020617,0.998129,0.057533,-0.020712,-0.998129,-0.135201,0.014670,-0.046045,0.003421,0.001016,0.001316,346.426910,350.889709,-1.000000,0.000000,0.000000
482149030.358128,-0.022949,-0.012100,-1.048660,0.057573,0.020743,0.001140,0.998341,0.002331,-0.057529,-0.001140,0.999784,0.020742,0.057565,-0.020642,0.998128,0.057529,-0.020742,-0.998128,-0.125095,0.016286,-0.075343,-0.002774,0.001045,0.009905,346.426910,350.889709,-1.000000,0.000000,0.000000
482149030.368254,0.126984,-0.018097,-1.064240,0.057573,0.020743,0.001140,0.998341,0.002331,-0.057529,-0.001140,0.999784,0.020742,0.057565,-0.020642,0.998128,0.057529,-0.020742,-0.998128,-0.125095,0.016286,-0.075343,-0.002774,0.001045,0.009905,346.426910,350.889709,-1.000000,0.000000,0.000000
482149030.377878,0.135651,-0.007339,-1.067108,0.057516,0.020837,0.001153,0.998344,0.002349,-0.057472,-0.001153,0.999782,0.020836,0.057508,-0.020735,0.998130,0.057472,-0.020836,-0.998130,-0.137016,0.015678,-0.065622,0.008368,-0.007075,-0.003599,346.426910,350.889709,-1.000000,0.000000,0.000000
482149030.387993,0.173172,-0.004044,-1.055084,0.057530,0.020843,0.001136,0.998344,0.002333,-0.057485,-0.001136,0.999782,0.020841,0.057522,-0.020742,0.998129,0.057485,-0.020841,-0.998129,-0.080435,0.008741,-0.050532,-0.002745,0.003281,0.001291,346.426910,350.889709,-1.000000,0.000000,0.000000
482149030.399225,0.037582,-0.008469,-1.074692,0.057530,0.020843,0.001136,0.998344,0.002333,-0.057485,-0.001136,0.999782,0.020841,0.057522,-0.020742,0.998129,0.057485,-0.020841,-0.998129,-0.080435,0.008741,-0.050532,-0.002745,0.003281,0.001291,346.423828,350.886627,-1.000000,0.000000,0.000000
482149030.407849,-0.012039,-0.005524,-1.071121,0.057483,0.020784,0.001104,0.998346,0.002296,-0.057439,-0.001104,0.999783,0.020783,0.057474,-0.020685,0.998133,0.057439,-0.020783,-0.998133,0.069545,0.002686,-0.066107,-0.006430,-0.001406,-0.003657,346.423828,350.886627,-1.000000,0.000000,0.000000
482149030.417925,0.123734,-0.008057,-1.059357,0.057524,0.020744,0.001120,0.998344,0.002310,-0.057480,-0.001119,0.999784,0.020742,0.057516,-0.020644,0.998131,0.057480,-0.020742,-0.998131,0.115692,0.016699,-0.056953,-0.001533,-0.000122,0.007447,346.423828,350.886627,-1.000000,0.000000,0.000000
482149030.429456,0.123734,-0.008057,-1.059357,0.057524,0.020744,0.001120,0.998344,0.002310,-0.057480,-0.001119,0.999784,0.020742,0.057516,-0.020644,0.998131,0.057480,-0.020742,-0.998131,0.115692,0.016699,-0.056953,-0.001533,-0.000122,0.007447,346.423828,350.886627,-1.000000,0.000000,0.000000
482149030.437295,0.164597,-0.013885,-1.070831,0.057516,0.020752,0.001204,0.998344,0.002395,-0.057472,-0.001204,0.999784,0.020750,0.057509,-0.020647,0.998131,0.057472,-0.020750,-0.998131,-0.019889,0.012282,-0.076560,-0.000295,-0.001278,0.006219,346.423828,350.886627,-1.000000,0.000000,0.000000
482149030.448272,0.089066,-0.009354,-1.059616,0.057479,0.020793,0.001185,0.998346,0.002377,-0.057435,-0.001185,0.999783,0.020792,0.057472,-0.020689,0.998133,0.057435,-0.020792,-0.998133,0.066298,0.012735,-0.061224,0.009602,-0.002447,-0.003586,346.421234,350.884033,-1.000000,0.000000,0.000000
482149030.462425,-0.016068,-0.007339,-1.059402,0.057479,0.020793,0.001185,0.998346,0.002377,-0.057435,-0.001185,0.999783,0.020792,0.057472,-0.020689,0.998133,0.057435,-0.020792,-0.998133,0.066298,0.012735,-0.061224,0.009602,-0.002447,-0.003586,346.421234,350.884033,-1.000000,0.000000,0.000000
482149030.467645,-0.136917,-0.011948,-1.058304,0.057511,0.020808,0.001173,0.998345,0.002367,-0.057467,-0.001173,0.999783,0.020807,0.057504,-0.020705,0.998131,0.057467,-0.020807,-0.998131,0.107129,0.006921,-0.072701,-0.000267,0.002112,-0.002393,346.421234,350.884033,-1.000000,0.000000,0.000000
482149030.478130,-0.226196,-0.006317,-1.069733,0.057530,0.020867,0.001243,0.998343,0.002441,-0.057486,-0.001243,0.999782,0.020865,0.057524,-0.020759,0.998128,0.057486,-0.020865,-0.998128,0.031580,0.011511,-0.061488,-0.000282,0.004464,0.002535,346.421234,350.884033,-1.000000,0.000000,0.000000
482149030.488489,-0.170700,-0.010239,-1.049728,0.057506,0.020925,0.001253,0.998345,0.002453,-0.057462,-0.001252,0.999780,0.020923,0.057501,-0.020816,0.998128,0.057462,-0.020923,-0.998128,-0.073529,0.013584,-0.061274,0.003419,-0.005913,0.001305,346.421234,350.884033,-1.000000,0.000000,0.000000
482149030.498388,-0.022018,-0.006271,-1.063339,0.057506,0.020925,0.001253,0.998345,0.002453,-0.057462,-0.001252,0.999780,0.020923,0.057501,-0.020816,0.998128,0.057462,-0.020923,-0.998128,-0.073529,0.013584,-0.061274,0.003419,-0.005913,0.001305,346.424835,350.887634,-1.000000,0.000000,0.000000
482149030.508095,-0.012054,-0.007446,-1.064270,0.057441,0.020982,0.001299,0.998348,0.002501,-0.057397,-0.001298,0.999779,0.020980,0.057436,-0.020871,0.998131,0.057397,-0.020980,-0.998131,-0.283593,0.014663,-0.071602,0.003405,-0.000098,0.006238,346.424835,350.887634,-1.000000,0.000000,0.000000
482149030.518447,-0.012054,-0.007446,-1.064270,0.057433,0.020976,0.001348,0.998349,0.002549,-0.057389,-0.001347,0.999779,0.020974,0.057430,-0.020862,0.998132,0.057389,-0.020974,-0.998132,-0.228089,0.010735,-0.051597,-0.000300,-0.001268,0.007450,346.424835,350.887634,-1.000000,0.000000,0.000000
482149030.528253,-0.067566,-0.010284,-1.054871,0.057433,0.020976,0.001348,0.998349,0.002549,-0.057389,-0.001347,0.999779,0.020974,0.057430,-0.020862,0.998132,0.057389,-0.020974,-0.998132,-0.228089,0.010735,-0.051597,-0.000300,-0.001268,0.007450,346.424835,350.887634,-1.000000,0.000000,0.000000
482149030.538077,-0.124176,-0.003326,-1.067017,0.057405,0.021009,0.001515,0.998350,0.002718,-0.057361,-0.001515,0.999778,0.021008,0.057405,-0.020886,0.998132,0.057361,-0.021008,-0.998132,-0.079379,0.014737,-0.065207,0.000934,0.001050,0.007459,346.424835,350.887634,-1.000000,0.000000,0.000000
482149030.548160,-0.027710,-0.012207,-1.076126,0.057420,0.021041,0.001592,0.998349,0.002797,-0.057375,-0.001592,0.999777,0.021039,0.057421,-0.020913,0.998131,0.057375,-0.021039,-0.998131,-0.069430,0.013593,-0.066139,0.003401,0.003377,0.007475,346.423523,350.886322,-1.000000,0.000000,0.000000
482149030.557975,0.012711,-0.010803,-1.051346,0.057420,0.021041,0.001592,0.998349,0.002797,-0.057375,-0.001592,0.999777,0.021039,0.057421,-0.020913,0.998131,0.057375,-0.021039,-0.998131,-0.069430,0.013593,-0.066139,0.003401,0.003377,0.007475,346.423523,350.886322,-1.000000,0.000000,0.000000
482149030.567889,0.043427,-0.003662,-1.076599,0.057392,0.021097,0.001722,0.998350,0.002929,-0.057348,-0.001722,0.999776,0.021095,0.057397,-0.020962,0.998131,0.057348,-0.021095,-0.998131,-0.181524,0.017769,-0.068885,0.003408,-0.004727,0.005000,346.423523,350.886322,-1.000000,0.000000,0.000000
482149030.578369,0.106003,-0.012665,-1.059494,0.057380,0.021168,0.001755,0.998351,0.002966,-0.057335,-0.001755,0.999774,0.021166,0.057385,-0.021031,0.998131,0.057335,-0.021166,-0.998131,-0.085045,0.008959,-0.077996,0.004646,-0.000110,0.003781,346.423523,350.886322,-1.000000,0.000000,0.000000
482149030.587658,0.137817,-0.016281,-1.060242,0.057380,0.021168,0.001755,0.998351,0.002966,-0.057335,-0.001755,0.999774,0.021166,0.057385,-0.021031,0.998131,0.057335,-0.021166,-0.998131,-0.085045,0.008959,-0.077996,0.004646,-0.000110,0.003781,346.423523,350.886322,-1.000000,0.000000,0.000000
482149030.597847,0.058441,-0.007935,-1.081406,0.057336,0.021228,0.001861,0.998353,0.003074,-0.057292,-0.001861,0.999773,0.021227,0.057344,-0.021085,0.998132,0.057292,-0.021227,-0.998132,-0.013865,0.017565,-0.078467,-0.000297,-0.005898,0.006212,346.424286,350.887085,-1.000000,0.000000,0.000000
482149030.608587,0.111893,-0.011780,-1.056503,0.057373,0.021205,0.001917,0.998351,0.003130,-0.057328,-0.001917,0.999773,0.021203,0.057382,-0.021058,0.998130,0.057328,-0.021203,-0.998130,0.048675,0.008538,-0.061364,-0.001535,0.005662,0.008686,346.424286,350.887085,-1.000000,0.000000,0.000000
482149030.619634,0.129013,-0.019135,-1.068161,0.057376,0.021213,0.001846,0.998351,0.003059,-0.057331,-0.001845,0.999773,0.021212,0.057383,-0.021071,0.998130,0.057331,-0.021212,-0.998130,0.080486,0.004931,-0.062112,-0.007650,0.005482,-0.007345,346.424286,350.887085,-1.000000,0.000000,0.000000
482149030.627781,0.129013,-0.019135,-1.068161,0.057376,0.021213,0.001846,0.998351,0.003059,-0.057331,-0.001845,0.999773,0.021212,0.057383,-0.021071,0.998130,0.057331,-0.021212,-0.998130,0.080486,0.004931,-0.062112,-0.007650,0.005482,-0.007345,346.424286,350.887085,-1.000000,0.000000,0.000000
482149030.638094,0.137711,-0.011322,-1.062195,0.057398,0.021241,0.001743,0.998350,0.002959,-0.057354,-0.001743,0.999773,0.021240,0.057404,-0.021105,0.998128,0.057354,-0.021240,-0.998128,0.001087,0.013305,-0.083278,0.008382,-0.000178,-0.007281,346.424286,350.887085,-1.000000,0.000000,0.000000
482149030.648435,0.108963,-0.014664,-1.051636,0.057383,0.021245,0.001804,0.998350,0.003020,-0.057338,-0.001804,0.999773,0.021244,0.057389,-0.021105,0.998129,0.057338,-0.021244,-0.998129,0.071675,0.002109,-0.070032,-0.002747,-0.002493,0.001281,346.422913,350.885712,-1.000000,0.000000,0.000000
482149030.658196,-0.010071,-0.006531,-1.068161,0.057383,0.021245,0.001804,0.998350,0.003020,-0.057338,-0.001804,0.999773,0.021244,0.057389,-0.021105,0.998129,0.057338,-0.021244,-0.998129,0.071675,0.002109,-0.070032,-0.002747,-0.002493,0.001281,346.422913,350.885712,-1.000000,0.000000,0.000000
482149030.668265,-0.051788,-0.009521,-1.045944,0.057358,0.021250,0.001835,0.998352,0.003050,-0.057314,-0.001834,0.999773,0.021249,0.057366,-0.021108,0.998130,0.057314,-0.021249,-0.998130,0.080397,0.009927,-0.064065,0.003408,-0.001263,0.005005,346.422913,350.885712,-1.000000,0.000000,0.000000
482149030.678101,-0.157928,-0.006500,-1.047684,0.057421,0.021230,0.001891,0.998348,0.003106,-0.057377,-0.001891,0.999773,0.021228,0.057430,-0.021085,0.998127,0.057377,-0.021228,-0.998127,-0.067448,0.014697,-0.070034,-0.001503,0.007887,-0.001159,346.422913,350.885712,-1.000000,0.000000,0.000000
482149030.688313,-0.015106,-0.007309,-1.052521,0.057421,0.021230,0.001891,0.998348,0.003106,-0.057377,-0.001891,0.999773,0.021228,0.057430,-0.021085,0.998127,0.057377,-0.021228,-0.998127,-0.067448,0.014697,-0.070034,-0.001503,0.007887,-0.001159,346.422913,350.885712,-1.000000,0.000000,0.000000
482149030.697892,-0.001053,-0.012604,-1.061249,0.057447,0.021265,0.001932,0.998346,0.003149,-0.057403,-0.001931,0.999772,0.021264,0.057457,-0.021118,0.998125,0.057403,-0.021264,-0.998125,-0.067474,0.014733,-0.070036,0.000954,-0.000157,0.001302,346.422913,350.885712,-1.000000,0.000000,0.000000
482149030.708201,-0.078278,-0.017075,-1.059845,0.057434,0.021310,0.001865,0.998347,0.003085,-0.057389,-0.001864,0.999771,0.021309,0.057442,-0.021167,0.998124,0.057389,-0.021309,-0.998124,-0.215318,0.014809,-0.049559,-0.001497,-0.000217,-0.003634,346.421082,350.883881,-1.000000,0.000000,0.000000
482149030.718149,-0.078278,-0.017075,-1.059845,0.057434,0.021310,0.001865,0.998347,0.003085,-0.057389,-0.001864,0.999771,0.021309,0.057442,-0.021167,0.998124,0.057389,-0.021309,-0.998124,-0.215318,0.014809,-0.049559,-0.001497,-0.000217,-0.003634,346.421082,350.883881,-1.000000,0.000000,0.000000
482149030.727773,-0.086288,-0.009064,-1.075592,0.057460,0.021268,0.001904,0.998345,0.003122,-0.057415,-0.001903,0.999772,0.021266,0.057468,-0.021122,0.998124,0.057415,-0.021266,-0.998124,-0.072521,0.013957,-0.054397,-0.006461,0.004451,0.006200,346.421082,350.883881,-1.000000,0.000000,0.000000
482149030.738117,-0.092438,-0.008759,-1.049164,0.057496,0.021274,0.001899,0.998343,0.003118,-0.057451,-0.001898,0.999772,0.021273,0.057504,-0.021128,0.998122,0.057451,-0.021273,-0.998122,-0.135729,0.004198,-0.061723,0.003417,0.001026,0.002546,346.421082,350.883881,-1.000000,0.000000,0.000000
482149030.749278,-0.071640,-0.002365,-1.067627,0.057496,0.021274,0.001899,0.998343,0.003118,-0.057451,-0.001898,0.999772,0.021273,0.057504,-0.021128,0.998122,0.057451,-0.021273,-0.998122,-0.135729,0.004198,-0.061723,0.003417,0.001026,0.002546,346.421082,350.883881,-1.000000,0.000000,0.000000
482149030.757999,0.001740,-0.002792,-1.067093,0.057500,0.021287,0.001851,0.998343,0.003071,-0.057456,-0.001850,0.999772,0.021285,0.057508,-0.021144,0.998121,0.057456,-0.021285,-0.998121,-0.143744,0.012222,-0.077471,-0.000263,-0.000208,-0.003628,346.418640,350.881439,-1.000000,0.000000,0.000000
482149030.768086,0.122025,-0.020920,-1.056442,0.057507,0.021371,0.001955,0.998343,0.003180,-0.057462,-0.001955,0.999770,0.021370,0.057517,-0.021222,0.998119,0.057462,-0.021370,-0.998119,-0.149900,0.012611,-0.051045,0.005860,0.003415,0.009947,346.418640,350.881439,-1.000000,0.000000,0.000000
482149030.778962,0.126617,-0.001251,-1.070114,0.057528,0.021389,0.001991,0.998341,0.003218,-0.057483,-0.001991,0.999769,0.021387,0.057538,-0.021237,0.998117,0.057483,-0.021387,-0.998117,-0.129123,0.019022,-0.069510,0.003425,0.003314,0.000088,346.418640,350.881439,-1.000000,0.000000,0.000000
482149030.788463,0.175140,-0.003082,-1.057999,0.057528,0.021389,0.001991,0.998341,0.003218,-0.057483,-0.001991,0.999769,0.021387,0.057538,-0.021237,0.998117,0.057483,-0.021387,-0.998117,-0.129123,0.019022,-0.069510,0.003425,0.003314,0.000088,346.418640,350.881439,-1.000000,0.000000,0.000000
482149030.799135,0.040741,-0.018417,-1.065842,0.057537,0.021440,0.001924,0.998341,0.003153,-0.057492,-0.001923,0.999768,0.021438,0.057546,-0.021292,0.998116,0.057492,-0.021438,-0.998116,0.064533,0.000518,-0.058326,0.002180,0.002182,0.003773,346.418640,350.881439,-1.000000,0.000000,0.000000
482149030.809635,0.015717,-0.005096,-1.076797,0.057562,0.021387,0.001993,0.998339,0.003220,-0.057517,-0.001993,0.999769,0.021385,0.057573,-0.021235,0.998115,0.057517,-0.021385,-0.998115,0.069100,0.020134,-0.071999,-0.007703,0.003308,0.008654,346.415375,350.878174,-1.000000,0.000000,0.000000
482149030.818109,0.015717,-0.005096,-1.076797,0.057562,0.021387,0.001993,0.998339,0.003220,-0.057517,-0.001993,0.999769,0.021385,0.057573,-0.021235,0.998115,0.057517,-0.021385,-0.998115,0.069100,0.020134,-0.071999,-0.007703,0.003308,0.008654,346.415375,350.878174,-1.000000,0.000000,0.000000
482149030.827887,0.125656,-0.007080,-1.055435,0.057603,0.021346,0.001997,0.998337,0.003222,-0.057558,-0.001996,0.999770,0.021344,0.057614,-0.021194,0.998114,0.057558,-0.021344,-0.998114,-0.016817,0.002927,-0.067728,-0.005212,0.003263,0.001279,346.415375,350.878174,-1.000000,0.000000,0.000000
482149030.838117,0.153397,-0.005661,-1.058167,0.057573,0.021320,0.002017,0.998339,0.003240,-0.057528,-0.002016,0.999771,0.021318,0.057584,-0.021167,0.998116,0.057528,-0.021318,-0.998116,-0.041811,0.016222,-0.078681,-0.000284,-0.002465,0.002523,346.415375,350.878174,-1.000000,0.000000,0.000000
482149030.848274,0.064301,-0.009872,-1.059799,0.057573,0.021320,0.002017,0.998339,0.003240,-0.057528,-0.002016,0.999771,0.021318,0.057584,-0.021167,0.998116,0.057528,-0.021318,-0.998116,-0.041811,0.016222,-0.078681,-0.000284,-0.002465,0.002523,346.415375,350.878174,-1.000000,0.000000,0.000000
482149030.858068,-0.001968,-0.011673,-1.073013,0.057518,0.021382,0.002147,0.998341,0.003372,-0.057473,-0.002146,0.999769,0.021380,0.057532,-0.021221,0.998118,0.057473,-0.021380,-0.998118,0.068183,0.014300,-0.057317,-0.000292,-0.002444,0.004985,346.412750,350.875549,-1.000000,0.000000,0.000000
482149030.868156,-0.136002,-0.013824,-1.039673,0.057472,0.021388,0.002093,0.998344,0.003318,-0.057427,-0.002092,0.999769,0.021386,0.057485,-0.021231,0.998121,0.057427,-0.021386,-0.998121,0.095970,0.015725,-0.060046,0.002193,-0.007098,-0.001166,346.412750,350.875549,-1.000000,0.000000,0.000000
482149030.878539,-0.234970,-0.006287,-1.089401,0.057472,0.021388,0.002093,0.998344,0.003318,-0.057427,-0.002092,0.999769,0.021386,0.057485,-0.021231,0.998121,0.057427,-0.021386,-0.998121,0.095970,0.015725,-0.060046,0.002193,-0.007098,-0.001166,346.412750,350.875549,-1.000000,0.000000,0.000000
482149030.887829,-0.170776,-0.007248,-1.049728,0.057463,0.021499,0.002130,0.998345,0.003361,-0.057418,-0.002130,0.999767,0.021497,0.057477,-0.021339,0.998119,0.057418,-0.021497,-0.998119,-0.059387,0.009824,-0.074895,0.005884,0.004507,0.002562,346.412750,350.875549,-1.000000,0.000000,0.000000
482149030.898253,-0.053741,0.003082,-1.092972,0.057428,0.021502,0.002131,0.998347,0.003361,-0.057383,-0.002130,0.999767,0.021501,0.057442,-0.021343,0.998121,0.057383,-0.021501,-0.998121,-0.193384,0.007676,-0.041552,0.003424,-0.002460,0.000078,346.412750,350.875549,-1.000000,0.000000,0.000000
482149030.910356,-0.052582,-0.013580,-1.058685,0.057447,0.021637,0.002161,0.998345,0.003399,-0.057402,-0.002160,0.999764,0.021635,0.057462,-0.021475,0.998117,0.057402,-0.021635,-0.998117,-0.292372,0.015348,-0.091285,0.012046,0.002252,0.003818,346.412750,350.875549,-1.000000,0.000000,0.000000
482149030.917961,-0.052582,-0.013580,-1.058685,0.057447,0.021637,0.002161,0.998345,0.003399,-0.057402,-0.002160,0.999764,0.021635,0.057462,-0.021475,0.998117,0.057402,-0.021635,-0.998117,-0.292372,0.015348,-0.091285,0.012046,0.002252,0.003818,346.411407,350.874207,-1.000000,0.000000,0.000000
482149030.927926,-0.093307,-0.007904,-1.067795,0.057480,0.021729,0.002139,0.998344,0.003383,-0.057435,-0.002138,0.999762,0.021727,0.057495,-0.021568,0.998113,0.057435,-0.021727,-0.998113,-0.228211,0.014479,-0.051616,0.007136,-0.001310,-0.003597,346.411407,350.874207,-1.000000,0.000000,0.000000
482149030.939122,-0.096466,-0.002808,-1.059967,0.057480,0.021729,0.002139,0.998344,0.003383,-0.057435,-0.002138,0.999762,0.021727,0.057495,-0.021568,0.998113,0.057435,-0.021727,-0.998113,-0.228211,0.014479,-0.051616,0.007136,-0.001310,-0.003597,346.411407,350.874207,-1.000000,0.000000,0.000000
482149030.947495,0.016769,-0.009033,-1.069931,0.057493,0.021721,0.002206,0.998343,0.003451,-0.057448,-0.002206,0.999762,0.021719,0.057509,-0.021557,0.998112,0.057448,-0.021719,-0.998112,-0.110029,0.008139,-0.060573,0.000949,-0.000147,0.002532,346.411407,350.874207,-1.000000,0.000000,0.000000
482149030.958212,0.077103,-0.006180,-1.063614,0.057485,0.021701,0.002220,0.998343,0.003463,-0.057440,-0.002220,0.999762,0.021699,0.057501,-0.021536,0.998113,0.057440,-0.021699,-0.998113,-0.150747,0.013795,-0.069682,-0.002754,-0.001317,0.003744,346.411407,350.874207,-1.000000,0.000000,0.000000
482149030.968776,0.116867,-0.007996,-1.070190,0.057425,0.021735,0.002279,0.998346,0.003523,-0.057380,-0.002279,0.999761,0.021733,0.057443,-0.021567,0.998116,0.057380,-0.021733,-0.998116,-0.040610,0.012700,-0.071815,0.003395,-0.004696,0.008691,346.409180,350.871979,-1.000000,0.000000,0.000000
482149030.978297,0.108017,-0.014694,-1.058502,0.057425,0.021735,0.002279,0.998346,0.003523,-0.057380,-0.002279,0.999761,0.021733,0.057443,-0.021567,0.998116,0.057380,-0.021733,-0.998116,-0.040610,0.012700,-0.071815,0.003395,-0.004696,0.008691,346.409180,350.871979,-1.000000,0.000000,0.000000
482149030.988039,0.148468,-0.003662,-1.068970,0.057418,0.021787,0.002283,0.998347,0.003530,-0.057373,-0.002283,0.999760,0.021785,0.057436,-0.021618,0.998115,0.057373,-0.021785,-0.998115,0.019730,0.015605,-0.065499,0.003425,0.001005,0.000083,346.409180,350.871979,-1.000000,0.000000,0.000000
482149030.999425,0.114685,-0.004883,-1.053543,0.057365,0.021864,0.002250,0.998350,0.003500,-0.057320,-0.002250,0.999758,0.021862,0.057383,-0.021697,0.998116,0.057320,-0.021862,-0.998116,0.059547,0.013866,-0.072074,-0.002743,-0.001349,0.000051,346.409180,350.871979,-1.000000,0.000000,0.000000
482149031.009590,0.114685,-0.004883,-1.053543,0.057365,0.021864,0.002250,0.998350,0.003500,-0.057320,-0.002250,0.999758,0.021862,0.057383,-0.021697,0.998116,0.057320,-0.021862,-0.998116,0.059547,0.013866,-0.072074,-0.002743,-0.001349,0.000051,346.409180,350.871979,-1.000000,0.000000,0.000000
482149031.017879,0.124878,-0.018906,-1.047592,0.057380,0.021869,0.002293,0.998349,0.003543,-0.057335,-0.002292,0.999758,0.021867,0.057398,-0.021700,0.998115,0.057335,-0.021867,-0.998115,0.050682,0.007173,-0.060387,0.000938,0.001039,0.006227,346.406372,350.869171,-1.000000,0.000000,0.000000
482149031.028066,0.157455,-0.007751,-1.064987,0.057405,0.021868,0.002252,0.998347,0.003503,-0.057360,-0.002252,0.999758,0.021866,0.057422,-0.021701,0.998114,0.057360,-0.021866,-0.998114,0.057325,0.016983,-0.055429,0.000965,-0.001343,-0.002394,346.406372,350.869171,-1.000000,0.000000,0.000000
482149031.038093,0.187347,-0.016205,-1.055969,0.057405,0.021868,0.002252,0.998347,0.003503,-0.057360,-0.002252,0.999758,0.021866,0.057422,-0.021701,0.998114,0.057360,-0.021866,-0.998114,0.057325,0.016983,-0.055429,0.000965,-0.001343,-0.002394,346.406372,350.869171,-1.000000,0.000000,0.000000
482149031.047817,0.108109,-0.013809,-1.074188,0.057432,0.021948,0.002237,0.998346,0.003493,-0.057387,-0.002236,0.999757,0.021946,0.057449,-0.021782,0.998111,0.057387,-0.021946,-0.998111,0.067491,0.003041,-0.049481,0.004659,0.004478,0.000094,346.406372,350.869171,-1.000000,0.000000,0.000000
482149031.058347,-0.008972,-0.010498,-1.067184,0.057473,0.022000,0.002301,0.998343,0.003561,-0.057428,-0.002301,0.999755,0.021999,0.057492,-0.021830,0.998107,0.057428,-0.021999,-0.998107,0.129920,0.005794,-0.057862,0.000958,0.002142,0.000074,346.406372,350.869171,-1.000000,0.000000,0.000000
482149031.068061,-0.087311,-0.013870,-1.053040,0.057473,0.022000,0.002301,0.998343,0.003561,-0.057428,-0.002301,0.999755,0.021999,0.057492,-0.021830,0.998107,0.057428,-0.021999,-0.998107,0.129920,0.005794,-0.057862,0.000958,0.002142,0.000074,346.409546,350.872345,-1.000000,0.000000,0.000000
482149031.077932,-0.195663,-0.006714,-1.040115,0.057488,0.021974,0.002309,0.998342,0.003568,-0.057442,-0.002309,0.999756,0.021972,0.057507,-0.021803,0.998107,0.057442,-0.021972,-0.998107,0.050666,0.008163,-0.076081,-0.003984,-0.000182,0.002510,346.409546,350.872345,-1.000000,0.000000,0.000000
482149031.088116,-0.182739,-0.005035,-1.049820,0.057443,0.021996,0.002471,0.998344,0.003730,-0.057398,-0.002471,0.999755,0.021994,0.057466,-0.021816,0.998109,0.057398,-0.021994,-0.998109,-0.066370,0.011496,-0.069075,0.000938,0.003349,0.006230,346.409546,350.872345,-1.000000,0.000000,0.000000
482149031.098089,0.025009,-0.019226,-1.082611,0.057443,0.021996,0.002471,0.998344,0.003730,-0.057398,-0.002471,0.999755,0.021994,0.057466,-0.021816,0.998109,0.057398,-0.021994,-0.998109,-0.066370,0.011496,-0.069075,0.000938,0.003349,0.006230,346.409546,350.872345,-1.000000,0.000000,0.000000
482149031.108003,-0.081406,-0.005234,-1.078476,0.057464,0.021980,0.002461,0.998343,0.003719,-0.057418,-0.002460,0.999755,0.021979,0.057486,-0.021801,0.998108,0.057418,-0.021979,-0.998108,-0.144729,0.008108,-0.054931,-0.002730,0.003239,-0.003635,346.409546,350.872345,-1.000000,0.000000,0.000000
482149031.117711,-0.081406,-0.005234,-1.078476,0.057477,0.021995,0.002491,0.998342,0.003750,-0.057432,-0.002491,0.999755,0.021993,0.057500,-0.021813,0.998107,0.057432,-0.021993,-0.998107,-0.240171,0.016957,-0.051713,-0.002746,-0.000184,0.001284,346.409546,350.872345,-1.000000,0.000000,0.000000
482149031.130171,-0.075348,-0.017090,-1.055908,0.057477,0.021995,0.002491,0.998342,0.003750,-0.057432,-0.002491,0.999755,0.021993,0.057500,-0.021813,0.998107,0.057432,-0.021993,-0.998107,-0.240171,0.016957,-0.051713,-0.002746,-0.000184,0.001284,346.413116,350.875916,-1.000000,0.000000,0.000000
482149031.140468,-0.121262,-0.000412,-1.066010,0.057504,0.021991,0.002468,0.998341,0.003728,-0.057458,-0.002468,0.999755,0.021989,0.057526,-0.021811,0.998106,0.057458,-0.021989,-0.998106,-0.032449,0.002763,-0.084505,-0.001497,0.002093,-0.003631,346.413116,350.875916,-1.000000,0.000000,0.000000
482149031.147665,-0.037842,-0.008896,-1.056625,0.057557,0.022022,0.002474,0.998338,0.003736,-0.057511,-0.002473,0.999754,0.022020,0.057579,-0.021841,0.998102,0.057511,-0.022020,-0.998102,-0.132859,0.004930,-0.057806,0.003421,0.003325,0.001318,346.413116,350.875916,-1.000000,0.000000,0.000000
482149031.162277,0.010666,-0.002975,-1.069000,0.057543,0.021996,0.002494,0.998339,0.003755,-0.057498,-0.002493,0.999755,0.021994,0.057566,-0.021814,0.998103,0.057498,-0.021994,-0.998103,-0.178759,0.021582,-0.067906,-0.005226,-0.003634,0.004960,346.413116,350.875916,-1.000000,0.000000,0.000000
482149031.167407,0.010666,-0.002975,-1.069000,0.057543,0.021996,0.002494,0.998339,0.003755,-0.057498,-0.002493,0.999755,0.021994,0.057566,-0.021814,0.998103,0.057498,-0.021994,-0.998103,-0.178759,0.021582,-0.067906,-0.005226,-0.003634,0.004960,346.413116,350.875916,-1.000000,0.000000,0.000000
482149031.178201,0.124100,-0.019073,-1.074081,0.057499,0.022033,0.002607,0.998341,0.003869,-0.057454,-0.002606,0.999754,0.022031,0.057525,-0.021845,0.998105,0.057454,-0.022031,-0.998105,-0.095295,0.013135,-0.058520,0.002154,-0.002375,0.011151,346.418427,350.881226,-1.000000,0.000000,0.000000
482149031.188089,0.120712,-0.005066,-1.064270,0.057508,0.022032,0.002638,0.998340,0.003900,-0.057463,-0.002638,0.999754,0.022030,0.057534,-0.021842,0.998105,0.057463,-0.022030,-0.998105,-0.077330,0.008785,-0.064273,0.003413,0.001008,0.001388,346.418427,350.881226,-1.000000,0.000000,0.000000
482149031.198272,0.046432,-0.006638,-1.068741,0.057508,0.022032,0.002638,0.998340,0.003900,-0.057463,-0.002638,0.999754,0.022030,0.057534,-0.021842,0.998105,0.057463,-0.022030,-0.998105,-0.077330,0.008785,-0.064273,0.003413,0.001008,0.001388,346.418427,350.881226,-1.000000,0.000000,0.000000
482149031.207831,0.046387,-0.007568,-1.061874,0.057504,0.022034,0.002671,0.998340,0.003933,-0.057459,-0.002670,0.999754,0.022032,0.057531,-0.021842,0.998105,0.057459,-0.022032,-0.998105,0.066641,0.002959,-0.075977,-0.001533,0.001004,0.005059,346.418427,350.881226,-1.000000,0.000000,0.000000
482149031.219703,0.136810,-0.010422,-1.078873,0.057474,0.022090,0.002747,0.998342,0.004012,-0.057428,-0.002747,0.999752,0.022088,0.057502,-0.021893,0.998105,0.057428,-0.022088,-0.998105,0.063284,0.017022,-0.066165,0.005850,-0.003521,0.010009,346.418427,350.881226,-1.000000,0.000000,0.000000
482149031.229114,0.141373,-0.003372,-1.047455,0.057474,0.022090,0.002747,0.998342,0.004012,-0.057428,-0.002747,0.999752,0.022088,0.057502,-0.021893,0.998105,0.057428,-0.022088,-0.998105,0.063284,0.017022,-0.066165,0.005850,-0.003521,0.010009,346.421478,350.884277,-1.000000,0.000000,0.000000
482149031.237314,0.141373,-0.003372,-1.047455,0.057420,0.022176,0.002781,0.998345,0.004049,-0.057374,-0.002781,0.999750,0.022174,0.057450,-0.021978,0.998106,0.057374,-0.022174,-0.998106,-0.010987,0.014606,-0.063768,0.004669,-0.003666,-0.006000,346.421478,350.884277,-1.000000,0.000000,0.000000
482149031.248147,0.104919,-0.007736,-1.065369,0.057446,0.022204,0.002793,0.998343,0.004063,-0.057400,-0.002793,0.999750,0.022202,0.057476,-0.022005,0.998104,0.057400,-0.022202,-0.998104,0.079410,0.011780,-0.080768,0.005880,0.002180,0.001401,346.421478,350.884277,-1.000000,0.000000,0.000000
482149031.258026,0.036667,-0.014343,-1.062927,0.057446,0.022204,0.002793,0.998343,0.004063,-0.057400,-0.002793,0.999750,0.022202,0.057476,-0.022005,0.998104,0.057400,-0.022202,-0.998104,0.079410,0.011780,-0.080768,0.005880,0.002180,0.001401,346.421478,350.884277,-1.000000,0.000000,0.000000
482149031.267802,-0.047638,-0.011734,-1.065506,0.057414,0.022171,0.002834,0.998345,0.004101,-0.057368,-0.002833,0.999750,0.022169,0.057445,-0.021969,0.998107,0.057368,-0.022169,-0.998107,0.084005,0.018797,-0.049348,-0.000306,-0.008215,0.006281,346.421478,350.884277,-1.000000,0.000000,0.000000
482149031.277750,-0.118988,-0.008453,-1.078751,0.057400,0.022206,0.002881,0.998345,0.004150,-0.057355,-0.002880,0.999749,0.022205,0.057432,-0.022003,0.998107,0.057355,-0.022205,-0.998107,0.047565,0.014468,-0.067262,0.002188,0.002132,-0.001078,346.428345,350.891144,-1.000000,0.000000,0.000000
482149031.289981,-0.105042,-0.016586,-1.063950,0.057476,0.022227,0.002817,0.998341,0.004089,-0.057431,-0.002816,0.999749,0.022226,0.057507,-0.022027,0.998102,0.057431,-0.022226,-0.998102,-0.105068,0.010492,-0.067404,-0.001509,-0.000214,-0.002330,346.428345,350.891144,-1.000000,0.000000,0.000000
482149031.297894,-0.015900,-0.011398,-1.070175,0.057476,0.022227,0.002817,0.998341,0.004089,-0.057431,-0.002816,0.999749,0.022226,0.057507,-0.022027,0.998102,0.057431,-0.022226,-0.998102,-0.105068,0.010492,-0.067404,-0.001509,-0.000214,-0.002330,346.428345,350.891144,-1.000000,0.000000,0.000000
482149031.308097,-0.069565,-0.013153,-1.044113,0.057519,0.022189,0.002826,0.998339,0.004097,-0.057473,-0.002826,0.999750,0.022187,0.057550,-0.021988,0.998100,0.057473,-0.022187,-0.998100,-0.176461,0.013734,-0.080650,-0.002753,0.004428,0.001365,346.428345,350.891144,-1.000000,0.000000,0.000000
482149031.318972,-0.082321,-0.011108,-1.070648,0.057519,0.022189,0.002826,0.998339,0.004097,-0.057473,-0.002826,0.999750,0.022187,0.057550,-0.021988,0.998100,0.057473,-0.022187,-0.998100,-0.176461,0.013734,-0.080650,-0.002753,0.004428,0.001365,346.428345,350.891144,-1.000000,0.000000,0.000000
482149031.328486,-0.075439,-0.014084,-1.050995,0.057482,0.022160,0.002831,0.998341,0.004099,-0.057436,-0.002830,0.999750,0.022158,0.057512,-0.021959,0.998103,0.057436,-0.022158,-0.998103,-0.073335,0.010760,-0.072072,-0.003971,0.003223,-0.003566,346.436340,350.899139,-1.000000,0.000000,0.000000
482149031.338657,-0.075439,-0.014084,-1.050995,0.057458,0.022173,0.002795,0.998342,0.004064,-0.057412,-0.002795,0.999750,0.022171,0.057488,-0.021974,0.998104,0.057412,-0.022171,-0.998104,-0.073312,0.010773,-0.072071,0.002186,-0.005951,-0.001091,346.436340,350.899139,-1.000000,0.000000,0.000000
482149031.349960,-0.030685,-0.017014,-1.061462,0.057461,0.022239,0.002782,0.998342,0.004055,-0.057415,-0.002782,0.999749,0.022237,0.057491,-0.022041,0.998103,0.057415,-0.022237,-0.998103,-0.139736,0.011129,-0.072545,0.008337,-0.001246,0.003869,346.436340,350.899139,-1.000000,0.000000,0.000000
482149031.357391,-0.030685,-0.017014,-1.061462,0.057461,0.022239,0.002782,0.998342,0.004055,-0.057415,-0.002782,0.999749,0.022237,0.057491,-0.022041,0.998103,0.057415,-0.022237,-0.998103,-0.139736,0.011129,-0.072545,0.008337,-0.001246,0.003869,346.436340,350.899139,-1.000000,0.000000,0.000000
482149031.368491,0.037476,-0.006454,-1.067810,0.057464,0.022231,0.002802,0.998342,0.004074,-0.057418,-0.002802,0.999749,0.022230,0.057494,-0.022032,0.998103,0.057418,-0.022230,-0.998103,-0.132858,0.008146,-0.052892,-0.000288,-0.001328,0.001367,346.436340,350.899139,-1.000000,0.000000,0.000000
482149031.377925,0.148560,-0.009567,-1.062103,0.057477,0.022269,0.002828,0.998341,0.004102,-0.057431,-0.002827,0.999748,0.022267,0.057508,-0.022068,0.998101,0.057431,-0.022267,-0.998101,-0.088117,0.005254,-0.063361,0.000935,-0.000148,0.003878,346.436340,350.899139,-1.000000,0.000000,0.000000
482149031.388416,0.179367,-0.008255,-1.076584,0.057477,0.022269,0.002828,0.998341,0.004102,-0.057431,-0.002827,0.999748,0.022267,0.057508,-0.022068,0.998101,0.057431,-0.022267,-0.998101,-0.088117,0.005254,-0.063361,0.000935,-0.000148,0.003878,346.438293,350.901093,-1.000000,0.000000,0.000000
482149031.397877,0.066406,-0.016861,-1.053909,0.057401,0.022239,0.002885,0.998345,0.004156,-0.057356,-0.002884,0.999749,0.022238,0.057434,-0.022035,0.998106,0.057356,-0.022238,-0.998106,-0.019880,0.015783,-0.069704,-0.004005,-0.009410,0.005073,346.438293,350.901093,-1.000000,0.000000,0.000000
482149031.408123,0.009689,-0.007812,-1.056290,0.057396,0.022233,0.002979,0.998345,0.004249,-0.057351,-0.002978,0.999748,0.022231,0.057431,-0.022024,0.998107,0.057351,-0.022231,-0.998107,0.091209,0.012664,-0.063997,0.007109,-0.001279,0.001443,346.438293,350.901093,-1.000000,0.000000,0.000000
482149031.418222,0.165695,-0.017899,-1.072784,0.057396,0.022233,0.002979,0.998345,0.004249,-0.057351,-0.002978,0.999748,0.022231,0.057431,-0.022024,0.998107,0.057351,-0.022231,-0.998107,0.091209,0.012664,-0.063997,0.007109,-0.001279,0.001443,346.438293,350.901093,-1.000000,0.000000,0.000000
482149031.428531,0.184158,-0.005295,-1.062836,0.057400,0.022250,0.003009,0.998345,0.004281,-0.057354,-0.003009,0.999748,0.022248,0.057435,-0.022039,0.998106,0.057354,-0.022248,-0.998106,0.122013,0.013993,-0.078478,-0.004005,0.003303,0.006324,346.438293,350.901093,-1.000000,0.000000,0.000000
482149031.437402,0.184158,-0.005295,-1.062836,0.057414,0.022290,0.002957,0.998344,0.004231,-0.057368,-0.002956,0.999747,0.022288,0.057448,-0.022081,0.998104,0.057368,-0.022288,-0.998104,-0.047679,0.014475,-0.058185,-0.002746,-0.003690,-0.002299,346.438293,350.901093,-1.000000,0.000000,0.000000
482149031.450997,0.079056,-0.005219,-1.059677,0.057414,0.022290,0.002957,0.998344,0.004231,-0.057368,-0.002956,0.999747,0.022288,0.057448,-0.022081,0.998104,0.057368,-0.022288,-0.998104,-0.047679,0.014475,-0.058185,-0.002746,-0.003690,-0.002299,346.438812,350.901611,-1.000000,0.000000,0.000000
482149031.458088,-0.037949,-0.005890,-1.052673,0.057423,0.022283,0.003001,0.998343,0.004275,-0.057377,-0.003000,0.999747,0.022281,0.057458,-0.022072,0.998104,0.057377,-0.022281,-0.998104,0.108318,0.004383,-0.074681,0.002166,0.005645,0.005124,346.438812,350.901611,-1.000000,0.000000,0.000000
482149031.468241,-0.160736,-0.011475,-1.056519,0.057436,0.022301,0.002998,0.998343,0.004273,-0.057390,-0.002997,0.999747,0.022300,0.057471,-0.022091,0.998103,0.057390,-0.022300,-0.998103,0.021665,0.017081,-0.061574,-0.002733,-0.000258,-0.005987,346.438812,350.901611,-1.000000,0.000000,0.000000
482149031.479284,-0.241013,-0.009979,-1.064926,0.057436,0.022301,0.002998,0.998343,0.004273,-0.057390,-0.002997,0.999747,0.022300,0.057471,-0.022091,0.998103,0.057390,-0.022300,-0.998103,0.021665,0.017081,-0.061574,-0.002733,-0.000258,-0.005987,346.438812,350.901611,-1.000000,0.000000,0.000000
482149031.488176,-0.161621,-0.009583,-1.074173,0.057469,0.022321,0.002974,0.998341,0.004251,-0.057423,-0.002974,0.999746,0.022320,0.057503,-0.022112,0.998100,0.057423,-0.022320,-0.998100,-0.095371,0.016430,-0.054573,0.002198,0.004407,-0.004726,346.438965,350.901764,-1.000000,0.000000,0.000000
