Timestamp,Accel_X,Accel_Y,Accel_Z,Roll,Pitch,Yaw,RM11,RM12,RM13,RM21,RM22,RM23,RM31,RM32,RM33,GravAcc_X,GravAcc_Y,GravAcc_Z,UserAcc_X,UserAcc_Y,UserAcc_Z,RotRate_X,RotRate_Y,RotRate_Z,MagHeading,TrueHeading,HeadingAccuracy,Course,Speed
482149137.871277,0.014771,-0.008972,-1.067993,0.009224,0.009093,0.009704,0.999910,0.009787,-0.009224,-0.009703,0.999912,0.009093,0.009312,-0.009002,0.999916,0.009224,-0.009093,-0.999916,0.004478,0.002104,-0.068077,-0.000326,-0.006587,-0.005300,346.285370,350.748169,-1.000000,0.000000,0.000000
482149137.878975,0.002792,-0.008652,-1.055344,0.009224,0.009093,0.009704,0.999910,0.009787,-0.009224,-0.009703,0.999912,0.009093,0.009312,-0.009002,0.999916,0.009224,-0.009093,-0.999916,0.004478,0.002104,-0.068077,-0.000326,-0.006587,-0.005300,346.285370,350.748169,-1.000000,0.000000,0.000000
482149137.888857,-0.005127,-0.006622,-1.068130,0.009224,0.009093,0.009704,0.999910,0.009787,-0.009224,-0.009703,0.999912,0.009093,0.009312,-0.009002,0.999916,0.009224,-0.009093,-0.999916,0.004478,0.002104,-0.068077,-0.000326,-0.006587,-0.005300,346.285370,350.748169,-1.000000,0.000000,0.000000
482149137.899268,0.037445,-0.007401,-1.060944,0.009224,0.009093,0.009704,0.999910,0.009787,-0.009224,-0.009703,0.999912,0.009093,0.009312,-0.009002,0.999916,0.009224,-0.009093,-0.999916,0.004478,0.002104,-0.068077,-0.000326,-0.006587,-0.005300,346.285370,350.748169,-1.000000,0.000000,0.000000
482149137.909358,0.031647,-0.014191,-1.055130,0.009224,0.009093,0.009704,0.999910,0.009787,-0.009224,-0.009703,0.999912,0.009093,0.009312,-0.009002,0.999916,0.009224,-0.009093,-0.999916,0.004478,0.002104,-0.068077,-0.000326,-0.006587,-0.005300,346.285370,350.748169,-1.000000,0.000000,0.000000
482149137.919258,0.013809,-0.009995,-1.071930,0.009224,0.009093,0.009704,0.999910,0.009787,-0.009224,-0.009703,0.999912,0.009093,0.009312,-0.009002,0.999916,0.009224,-0.009093,-0.999916,0.004478,0.002104,-0.068077,-0.000326,-0.006587,-0.005300,346.285370,350.748169,-1.000000,0.000000,0.000000
482149137.928503,0.010788,-0.011810,-1.057236,0.009224,0.009093,0.009704,0.999910,0.009787,-0.009224,-0.009703,0.999912,0.009093,0.009312,-0.009002,0.999916,0.009224,-0.009093,-0.999916,0.004478,0.002104,-0.068077,-0.000326,-0.006587,-0.005300,346.285370,350.748169,-1.000000,0.000000,0.000000
482149137.939306,0.018738,-0.009048,-1.066986,0.009224,0.009093,0.009704,0.999910,0.009787,-0.009224,-0.009703,0.999912,0.009093,0.009312,-0.009002,0.999916,0.009224,-0.009093,-0.999916,0.004478,0.002104,-0.068077,-0.000326,-0.006587,-0.005300,346.285370,350.748169,-1.000000,0.000000,0.000000
482149137.949229,0.023590,-0.009048,-1.052246,0.009224,0.009093,0.009704,0.999910,0.009787,-0.009224,-0.009703,0.999912,0.009093,0.009312,-0.009002,0.999916,0.009224,-0.009093,-0.999916,0.004478,0.002104,-0.068077,-0.000326,-0.006587,-0.005300,346.285370,350.748169,-1.000000,0.000000,0.000000
482149137.959786,0.015945,-0.015991,-1.069946,0.009224,0.009093,0.009704,0.999910,0.009787,-0.009224,-0.009703,0.999912,0.009093,0.009312,-0.009002,0.999916,0.009224,-0.009093,-0.999916,0.004478,0.002104,-0.068077,-0.000326,-0.006587,-0.005300,346.285370,350.748169,-1.000000,0.000000,0.000000
482149137.969211,0.020660,-0.008072,-1.063034,0.009224,0.009093,0.009704,0.999910,0.009787,-0.009224,-0.009703,0.999912,0.009093,0.009312,-0.009002,0.999916,0.009224,-0.009093,-0.999916,0.004478,0.002104,-0.068077,-0.000326,-0.006587,-0.005300,346.285370,350.748169,-1.000000,0.000000,0.000000
482149137.978643,-0.033875,-0.006073,-1.067352,0.009224,0.009093,0.009704,0.999910,0.009787,-0.009224,-0.009703,0.999912,0.009093,0.009312,-0.009002,0.999916,0.009224,-0.009093,-0.999916,0.004478,0.002104,-0.068077,-0.000326,-0.006587,-0.005300,346.285370,350.748169,-1.000000,0.000000,0.000000
482149137.989160,0.019623,-0.008011,-1.056213,0.009224,0.009093,0.009704,0.999910,0.009787,-0.009224,-0.009703,0.999912,0.009093,0.009312,-0.009002,0.999916,0.009224,-0.009093,-0.999916,0.004478,0.002104,-0.068077,-0.000326,-0.006587,-0.005300,346.285370,350.748169,-1.000000,0.000000,0.000000
482149137.998746,0.019623,-0.008011,-1.056213,0.009224,0.009093,0.009704,0.999910,0.009787,-0.009224,-0.009703,0.999912,0.009093,0.009312,-0.009002,0.999916,0.009224,-0.009093,-0.999916,0.004478,0.002104,-0.068077,-0.000326,-0.006587,-0.005300,346.285370,350.748169,-1.000000,0.000000,0.000000
482149138.010968,0.005722,-0.005783,-1.059219,0.009224,0.009093,0.009704,0.999910,0.009787,-0.009224,-0.009703,0.999912,0.009093,0.009312,-0.009002,0.999916,0.009224,-0.009093,-0.999916,0.004478,0.002104,-0.068077,-0.000326,-0.006587,-0.005300,346.285370,350.748169,-1.000000,0.000000,0.000000
482149138.019040,0.005722,-0.005783,-1.059219,0.009224,0.009093,0.009704,0.999910,0.009787,-0.009224,-0.009703,0.999912,0.009093,0.009312,-0.009002,0.999916,0.009224,-0.009093,-0.999916,0.004478,0.002104,-0.068077,-0.000326,-0.006587,-0.005300,346.285370,350.748169,-1.000000,0.000000,0.000000
482149138.032844,0.005768,-0.003876,-1.070984,0.009224,0.009093,0.009704,0.999910,0.009787,-0.009224,-0.009703,0.999912,0.009093,0.009312,-0.009002,0.999916,0.009224,-0.009093,-0.999916,0.004478,0.002104,-0.068077,-0.000326,-0.006587,-0.005300,346.285370,350.748169,-1.000000,0.000000,0.000000
482149138.038400,0.005768,-0.003876,-1.070984,0.009224,0.009093,0.009704,0.999910,0.009787,-0.009224,-0.009703,0.999912,0.009093,0.009312,-0.009002,0.999916,0.009224,-0.009093,-0.999916,0.004478,0.002104,-0.068077,-0.000326,-0.006587,-0.005300,346.285370,350.748169,-1.000000,0.000000,0.000000
482149138.049250,-0.020859,-0.015152,-1.052567,0.009224,0.009093,0.009704,0.999910,0.009787,-0.009224,-0.009703,0.999912,0.009093,0.009312,-0.009002,0.999916,0.009224,-0.009093,-0.999916,0.004478,0.002104,-0.068077,-0.000326,-0.006587,-0.005300,346.285370,350.748169,-1.000000,0.000000,0.000000
482149138.059700,-0.020889,-0.007355,-1.076080,0.009224,0.009093,0.009704,0.999910,0.009787,-0.009224,-0.009703,0.999912,0.009093,0.009312,-0.009002,0.999916,0.009224,-0.009093,-0.999916,0.004478,0.002104,-0.068077,-0.000326,-0.006587,-0.005300,346.285370,350.748169,-1.000000,0.000000,0.000000
482149138.069197,0.050278,-0.003693,-1.063797,0.009224,0.009093,0.009704,0.999910,0.009787,-0.009224,-0.009703,0.999912,0.009093,0.009312,-0.009002,0.999916,0.009224,-0.009093,-0.999916,0.004478,0.002104,-0.068077,-0.000326,-0.006587,-0.005300,346.285370,350.748169,-1.000000,0.000000,0.000000
482149138.078790,0.007858,-0.012787,-1.062164,0.009224,0.009093,0.009704,0.999910,0.009787,-0.009224,-0.009703,0.999912,0.009093,0.009312,-0.009002,0.999916,0.009224,-0.009093,-0.999916,0.004478,0.002104,-0.068077,-0.000326,-0.006587,-0.005300,346.285370,350.748169,-1.000000,0.000000,0.000000
482149138.089471,0.019730,-0.011002,-1.060120,0.009224,0.009093,0.009704,0.999910,0.009787,-0.009224,-0.009703,0.999912,0.009093,0.009312,-0.009002,0.999916,0.009224,-0.009093,-0.999916,0.004478,0.002104,-0.068077,-0.000326,-0.006587,-0.005300,346.285370,350.748169,-1.000000,0.000000,0.000000
482149138.099225,0.019730,-0.011002,-1.060120,0.009224,0.009093,0.009704,0.999910,0.009787,-0.009224,-0.009703,0.999912,0.009093,0.009312,-0.009002,0.999916,0.009224,-0.009093,-0.999916,0.004478,0.002104,-0.068077,-0.000326,-0.006587,-0.005300,346.285370,350.748169,-1.000000,0.000000,0.000000
482149138.113714,0.011688,-0.005951,-1.065063,0.009224,0.009093,0.009704,0.999910,0.009787,-0.009224,-0.009703,0.999912,0.009093,0.009312,-0.009002,0.999916,0.009224,-0.009093,-0.999916,0.004478,0.002104,-0.068077,-0.000326,-0.006587,-0.005300,346.285370,350.748169,-1.000000,0.000000,0.000000
482149138.119053,0.022614,-0.009048,-1.057144,0.009224,0.009093,0.009704,0.999910,0.009787,-0.009224,-0.009703,0.999912,0.009093,0.009312,-0.009002,0.999916,0.009224,-0.009093,-0.999916,0.004478,0.002104,-0.068077,-0.000326,-0.006587,-0.005300,346.285370,350.748169,-1.000000,0.000000,0.000000
482149138.129078,0.066223,-0.006012,-1.067612,0.009224,0.009093,0.009704,0.999910,0.009787,-0.009224,-0.009703,0.999912,0.009093,0.009312,-0.009002,0.999916,0.009224,-0.009093,-0.999916,0.004478,0.002104,-0.068077,-0.000326,-0.006587,-0.005300,346.285370,350.748169,-1.000000,0.000000,0.000000
482149138.139358,0.052460,-0.013626,-1.058899,0.009224,0.009093,0.009704,0.999910,0.009787,-0.009224,-0.009703,0.999912,0.009093,0.009312,-0.009002,0.999916,0.009224,-0.009093,-0.999916,0.004478,0.002104,-0.068077,-0.000326,-0.006587,-0.005300,346.285370,350.748169,-1.000000,0.000000,0.000000
482149138.148553,0.008850,-0.007919,-1.074905,0.009224,0.009093,0.009704,0.999910,0.009787,-0.009224,-0.009703,0.999912,0.009093,0.009312,-0.009002,0.999916,0.009224,-0.009093,-0.999916,0.004478,0.002104,-0.068077,-0.000326,-0.006587,-0.005300,346.285370,350.748169,-1.000000,0.000000,0.000000
482149138.161003,-0.005127,-0.014359,-1.039734,0.009224,0.009093,0.009704,0.999910,0.009787,-0.009224,-0.009703,0.999912,0.009093,0.009312,-0.009002,0.999916,0.009224,-0.009093,-0.999916,0.004478,0.002104,-0.068077,-0.000326,-0.006587,-0.005300,346.285370,350.748169,-1.000000,0.000000,0.000000
482149138.169384,-0.017868,-0.013290,-1.064316,0.009224,0.009093,0.009704,0.999910,0.009787,-0.009224,-0.009703,0.999912,0.009093,0.009312,-0.009002,0.999916,0.009224,-0.009093,-0.999916,0.004478,0.002104,-0.068077,-0.000326,-0.006587,-0.005300,346.285370,350.748169,-1.000000,0.000000,0.000000
482149138.179214,0.013718,-0.007004,-1.069946,0.009224,0.009093,0.009704,0.999910,0.009787,-0.009224,-0.009703,0.999912,0.009093,0.009312,-0.009002,0.999916,0.009224,-0.009093,-0.999916,0.004478,0.002104,-0.068077,-0.000326,-0.006587,-0.005300,346.285370,350.748169,-1.000000,0.000000,0.000000
482149138.189745,-0.005081,-0.012466,-1.053452,0.009224,0.009093,0.009704,0.999910,0.009787,-0.009224,-0.009703,0.999912,0.009093,0.009312,-0.009002,0.999916,0.009224,-0.009093,-0.999916,0.004478,0.002104,-0.068077,-0.000326,-0.006587,-0.005300,346.285370,350.748169,-1.000000,0.000000,0.000000
482149138.198609,0.004807,-0.006821,-1.067078,0.009224,0.009093,0.009704,0.999910,0.009787,-0.009224,-0.009703,0.999912,0.009093,0.009312,-0.009002,0.999916,0.009224,-0.009093,-0.999916,0.004478,0.002104,-0.068077,-0.000326,-0.006587,-0.005300,346.285370,350.748169,-1.000000,0.000000,0.000000
482149138.212037,-0.006073,-0.009537,-1.062271,0.009224,0.009093,0.009704,0.999910,0.009787,-0.009224,-0.009703,0.999912,0.009093,0.009312,-0.009002,0.999916,0.009224,-0.009093,-0.999916,0.004478,0.002104,-0.068077,-0.000326,-0.006587,-0.005300,346.285370,350.748169,-1.000000,0.000000,0.000000
482149138.219036,-0.011230,-0.006348,-1.043671,0.009224,0.009093,0.009704,0.999910,0.009787,-0.009224,-0.009703,0.999912,0.009093,0.009312,-0.009002,0.999916,0.009224,-0.009093,-0.999916,0.004478,0.002104,-0.068077,-0.000326,-0.006587,-0.005300,346.285370,350.748169,-1.000000,0.000000,0.000000
482149138.231520,-0.011230,-0.006348,-1.043671,0.009224,0.009093,0.009704,0.999910,0.009787,-0.009224,-0.009703,0.999912,0.009093,0.009312,-0.009002,0.999916,0.009224,-0.009093,-0.999916,0.004478,0.002104,-0.068077,-0.000326,-0.006587,-0.005300,346.285370,350.748169,-1.000000,0.000000,0.000000
482149138.239382,0.059555,-0.017776,-1.064728,0.009224,0.009093,0.009704,0.999910,0.009787,-0.009224,-0.009703,0.999912,0.009093,0.009312,-0.009002,0.999916,0.009224,-0.009093,-0.999916,0.004478,0.002104,-0.068077,-0.000326,-0.006587,-0.005300,346.285370,350.748169,-1.000000,0.000000,0.000000
482149138.248522,0.081116,-0.011154,-1.051834,0.009224,0.009093,0.009704,0.999910,0.009787,-0.009224,-0.009703,0.999912,0.009093,0.009312,-0.009002,0.999916,0.009224,-0.009093,-0.999916,0.004478,0.002104,-0.068077,-0.000326,-0.006587,-0.005300,346.285370,350.748169,-1.000000,0.000000,0.000000
482149138.261994,0.027557,-0.006241,-1.062973,0.009224,0.009093,0.009704,0.999910,0.009787,-0.009224,-0.009703,0.999912,0.009093,0.009312,-0.009002,0.999916,0.009224,-0.009093,-0.999916,0.004478,0.002104,-0.068077,-0.000326,-0.006587,-0.005300,346.285370,350.748169,-1.000000,0.000000,0.000000
482149138.269376,0.034546,-0.010300,-1.059036,0.009224,0.009093,0.009704,0.999910,0.009787,-0.009224,-0.009703,0.999912,0.009093,0.009312,-0.009002,0.999916,0.009224,-0.009093,-0.999916,0.004478,0.002104,-0.068077,-0.000326,-0.006587,-0.005300,346.285370,350.748169,-1.000000,0.000000,0.000000
482149138.279121,0.056244,-0.003830,-1.064728,0.009224,0.009093,0.009704,0.999910,0.009787,-0.009224,-0.009703,0.999912,0.009093,0.009312,-0.009002,0.999916,0.009224,-0.009093,-0.999916,0.004478,0.002104,-0.068077,-0.000326,-0.006587,-0.005300,346.285370,350.748169,-1.000000,0.000000,0.000000
482149138.289454,0.029694,-0.013214,-1.063965,0.009224,0.009093,0.009704,0.999910,0.009787,-0.009224,-0.009703,0.999912,0.009093,0.009312,-0.009002,0.999916,0.009224,-0.009093,-0.999916,0.004478,0.002104,-0.068077,-0.000326,-0.006587,-0.005300,346.285370,350.748169,-1.000000,0.000000,0.000000
482149138.298606,0.015717,-0.009949,-1.058197,0.009224,0.009093,0.009704,0.999910,0.009787,-0.009224,-0.009703,0.999912,0.009093,0.009312,-0.009002,0.999916,0.009224,-0.009093,-0.999916,0.004478,0.002104,-0.068077,-0.000326,-0.006587,-0.005300,346.285370,350.748169,-1.000000,0.000000,0.000000
482149138.310867,-0.031784,-0.012985,-1.056580,0.009224,0.009093,0.009704,0.999910,0.009787,-0.009224,-0.009703,0.999912,0.009093,0.009312,-0.009002,0.999916,0.009224,-0.009093,-0.999916,0.004478,0.002104,-0.068077,-0.000326,-0.006587,-0.005300,346.285370,350.748169,-1.000000,0.000000,0.000000
482149138.319561,-0.059738,-0.000626,-1.071457,0.009224,0.009093,0.009704,0.999910,0.009787,-0.009224,-0.009703,0.999912,0.009093,0.009312,-0.009002,0.999916,0.009224,-0.009093,-0.999916,0.004478,0.002104,-0.068077,-0.000326,-0.006587,-0.005300,346.285370,350.748169,-1.000000,0.000000,0.000000
482149138.330065,-0.063583,-0.009384,-1.058762,0.009224,0.009093,0.009704,0.999910,0.009787,-0.009224,-0.009703,0.999912,0.009093,0.009312,-0.009002,0.999916,0.009224,-0.009093,-0.999916,0.004478,0.002104,-0.068077,-0.000326,-0.006587,-0.005300,346.285370,350.748169,-1.000000,0.000000,0.000000
482149138.342457,-0.007263,0.001312,-1.072052,0.009224,0.009093,0.009704,0.999910,0.009787,-0.009224,-0.009703,0.999912,0.009093,0.009312,-0.009002,0.999916,0.009224,-0.009093,-0.999916,0.004478,0.002104,-0.068077,-0.000326,-0.006587,-0.005300,346.285370,350.748169,-1.000000,0.000000,0.000000
482149138.349027,-0.007263,0.001312,-1.072052,0.009224,0.009093,0.009704,0.999910,0.009787,-0.009224,-0.009703,0.999912,0.009093,0.009312,-0.009002,0.999916,0.009224,-0.009093,-0.999916,0.004478,0.002104,-0.068077,-0.000326,-0.006587,-0.005300,346.285370,350.748169,-1.000000,0.000000,0.000000
482149138.359528,-0.042831,-0.000046,-1.082123,0.009224,0.009093,0.009704,0.999910,0.009787,-0.009224,-0.009703,0.999912,0.009093,0.009312,-0.009002,0.999916,0.009224,-0.009093,-0.999916,0.004478,0.002104,-0.068077,-0.000326,-0.006587,-0.005300,346.285370,350.748169,-1.000000,0.000000,0.000000
482149138.369248,-0.058823,-0.005463,-1.048904,0.009224,0.009093,0.009704,0.999910,0.009787,-0.009224,-0.009703,0.999912,0.009093,0.009312,-0.009002,0.999916,0.009224,-0.009093,-0.999916,0.004478,0.002104,-0.068077,-0.000326,-0.006587,-0.005300,346.285370,350.748169,-1.000000,0.000000,0.000000
482149138.379515,-0.020905,-0.003464,-1.085876,0.009224,0.009093,0.009704,0.999910,0.009787,-0.009224,-0.009703,0.999912,0.009093,0.009312,-0.009002,0.999916,0.009224,-0.009093,-0.999916,0.004478,0.002104,-0.068077,-0.000326,-0.006587,-0.005300,346.285370,350.748169,-1.000000,0.000000,0.000000
482149138.389514,0.034515,-0.011215,-1.050201,0.009224,0.009093,0.009704,0.999910,0.009787,-0.009224,-0.009703,0.999912,0.009093,0.009312,-0.009002,0.999916,0.009224,-0.009093,-0.999916,0.004478,0.002104,-0.068077,-0.000326,-0.006587,-0.005300,346.285370,350.748169,-1.000000,0.000000,0.000000
482149138.399407,0.077301,-0.011215,-1.072449,0.009224,0.009093,0.009704,0.999910,0.009787,-0.009224,-0.009703,0.999912,0.009093,0.009312,-0.009002,0.999916,0.009224,-0.009093,-0.999916,0.004478,0.002104,-0.068077,-0.000326,-0.006587,-0.005300,346.285370,350.748169,-1.000000,0.000000,0.000000
482149138.409466,0.057297,-0.005829,-1.067673,0.009224,0.009093,0.009704,0.999910,0.009787,-0.009224,-0.009703,0.999912,0.009093,0.009312,-0.009002,0.999916,0.009224,-0.009093,-0.999916,0.004478,0.002104,-0.068077,-0.000326,-0.006587,-0.005300,346.285370,350.748169,-1.000000,0.000000,0.000000
482149138.419406,0.010666,-0.005875,-1.059189,0.009224,0.009093,0.009704,0.999910,0.009787,-0.009224,-0.009703,0.999912,0.009093,0.009312,-0.009002,0.999916,0.009224,-0.009093,-0.999916,0.004478,0.002104,-0.068077,-0.000326,-0.006587,-0.005300,346.285370,350.748169,-1.000000,0.000000,0.000000
482149138.428630,0.025711,-0.009216,-1.071838,0.009224,0.009093,0.009704,0.999910,0.009787,-0.009224,-0.009703,0.999912,0.009093,0.009312,-0.009002,0.999916,0.009224,-0.009093,-0.999916,0.004478,0.002104,-0.068077,-0.000326,-0.006587,-0.005300,346.285370,350.748169,-1.000000,0.000000,0.000000
482149138.439444,0.048416,-0.007660,-1.067734,0.009224,0.009093,0.009704,0.999910,0.009787,-0.009224,-0.009703,0.999912,0.009093,0.009312,-0.009002,0.999916,0.009224,-0.009093,-0.999916,0.004478,0.002104,-0.068077,-0.000326,-0.006587,-0.005300,346.285370,350.748169,-1.000000,0.000000,0.000000
482149138.448404,0.048416,-0.007660,-1.067734,0.009224,0.009093,0.009704,0.999910,0.009787,-0.009224,-0.009703,0.999912,0.009093,0.009312,-0.009002,0.999916,0.009224,-0.009093,-0.999916,0.004478,0.002104,-0.068077,-0.000326,-0.006587,-0.005300,346.285370,350.748169,-1.000000,0.000000,0.000000
482149138.459656,0.063248,-0.004013,-1.072525,0.009224,0.009093,0.009704,0.999910,0.009787,-0.009224,-0.009703,0.999912,0.009093,0.009312,-0.009002,0.999916,0.009224,-0.009093,-0.999916,0.004478,0.002104,-0.068077,-0.000326,-0.006587,-0.005300,346.285370,350.748169,-1.000000,0.000000,0.000000
482149138.469137,-0.013107,-0.008316,-1.050537,0.009224,0.009093,0.009704,0.999910,0.009787,-0.009224,-0.009703,0.999912,0.009093,0.009312,-0.009002,0.999916,0.009224,-0.009093,-0.999916,0.004478,0.002104,-0.068077,-0.000326,-0.006587,-0.005300,346.285370,350.748169,-1.000000,0.000000,0.000000
482149138.479430,-0.032654,-0.016006,-1.068344,0.009224,0.009093,0.009704,0.999910,0.009787,-0.009224,-0.009703,0.999912,0.009093,0.009312,-0.009002,0.999916,0.009224,-0.009093,-0.999916,0.004478,0.002104,-0.068077,-0.000326,-0.006587,-0.005300,346.285370,350.748169,-1.000000,0.000000,0.000000
482149138.489508,-0.051834,-0.004654,-1.056717,0.009224,0.009093,0.009704,0.999910,0.009787,-0.009224,-0.009703,0.999912,0.009093,0.009312,-0.009002,0.999916,0.009224,-0.009093,-0.999916,0.004478,0.002104,-0.068077,-0.000326,-0.006587,-0.005300,346.285370,350.748169,-1.000000,0.000000,0.000000
482149138.499369,0.042496,-0.010468,-1.060928,0.009224,0.009093,0.009704,0.999910,0.009787,-0.009224,-0.009703,0.999912,0.009093,0.009312,-0.009002,0.999916,0.009224,-0.009093,-0.999916,0.004478,0.002104,-0.068077,-0.000326,-0.006587,-0.005300,346.285370,350.748169,-1.000000,0.000000,0.000000
482149138.509434,0.018631,-0.008942,-1.053268,0.009224,0.009093,0.009704,0.999910,0.009787,-0.009224,-0.009703,0.999912,0.009093,0.009312,-0.009002,0.999916,0.009224,-0.009093,-0.999916,0.004478,0.002104,-0.068077,-0.000326,-0.006587,-0.005300,346.285370,350.748169,-1.000000,0.000000,0.000000
482149138.519550,-0.048538,-0.011795,-1.076279,0.009224,0.009093,0.009704,0.999910,0.009787,-0.009224,-0.009703,0.999912,0.009093,0.009312,-0.009002,0.999916,0.009224,-0.009093,-0.999916,0.004478,0.002104,-0.068077,-0.000326,-0.006587,-0.005300,346.285370,350.748169,-1.000000,0.000000,0.000000
482149138.529063,-0.086700,-0.000961,-1.048126,0.009224,0.009093,0.009704,0.999910,0.009787,-0.009224,-0.009703,0.999912,0.009093,0.009312,-0.009002,0.999916,0.009224,-0.009093,-0.999916,0.004478,0.002104,-0.068077,-0.000326,-0.006587,-0.005300,346.285370,350.748169,-1.000000,0.000000,0.000000
482149138.540272,-0.086700,-0.000961,-1.048126,0.009224,0.009093,0.009704,0.999910,0.009787,-0.009224,-0.009703,0.999912,0.009093,0.009312,-0.009002,0.999916,0.009224,-0.009093,-0.999916,0.004478,0.002104,-0.068077,-0.000326,-0.006587,-0.005300,346.285370,350.748169,-1.000000,0.000000,0.000000
482149138.549257,0.001846,-0.004807,-1.074936,0.009224,0.009093,0.009704,0.999910,0.009787,-0.009224,-0.009703,0.999912,0.009093,0.009312,-0.009002,0.999916,0.009224,-0.009093,-0.999916,0.004478,0.002104,-0.068077,-0.000326,-0.006587,-0.005300,346.285370,350.748169,-1.000000,0.000000,0.000000
482149138.559326,0.062103,-0.005798,-1.047058,0.009224,0.009093,0.009704,0.999910,0.009787,-0.009224,-0.009703,0.999912,0.009093,0.009312,-0.009002,0.999916,0.009224,-0.009093,-0.999916,0.004478,0.002104,-0.068077,-0.000326,-0.006587,-0.005300,346.285370,350.748169,-1.000000,0.000000,0.000000
482149138.569231,0.084015,-0.004364,-1.065506,0.009224,0.009093,0.009704,0.999910,0.009787,-0.009224,-0.009703,0.999912,0.009093,0.009312,-0.009002,0.999916,0.009224,-0.009093,-0.999916,0.004478,0.002104,-0.068077,-0.000326,-0.006587,-0.005300,346.285370,350.748169,-1.000000,0.000000,0.000000
482149138.579429,0.033600,-0.011276,-1.061981,0.009224,0.009093,0.009704,0.999910,0.009787,-0.009224,-0.009703,0.999912,0.009093,0.009312,-0.009002,0.999916,0.009224,-0.009093,-0.999916,0.004478,0.002104,-0.068077,-0.000326,-0.006587,-0.005300,346.285370,350.748169,-1.000000,0.000000,0.000000
482149138.589917,-0.014160,-0.003418,-1.060349,0.009224,0.009093,0.009704,0.999910,0.009787,-0.009224,-0.009703,0.999912,0.009093,0.009312,-0.009002,0.999916,0.009224,-0.009093,-0.999916,0.004478,0.002104,-0.068077,-0.000326,-0.006587,-0.005300,346.285370,350.748169,-1.000000,0.000000,0.000000
482149138.599146,0.093353,-0.019470,-1.071350,0.009224,0.009093,0.009704,0.999910,0.009787,-0.009224,-0.009703,0.999912,0.009093,0.009312,-0.009002,0.999916,0.009224,-0.009093,-0.999916,0.004478,0.002104,-0.068077,-0.000326,-0.006587,-0.005300,346.285370,350.748169,-1.000000,0.000000,0.000000
482149138.609430,0.085968,-0.004379,-1.060593,0.009224,0.009093,0.009704,0.999910,0.009787,-0.009224,-0.009703,0.999912,0.009093,0.009312,-0.009002,0.999916,0.009224,-0.009093,-0.999916,0.004478,0.002104,-0.068077,-0.000326,-0.006587,-0.005300,346.285370,350.748169,-1.000000,0.000000,0.000000
482149138.619194,0.034515,-0.005417,-1.071762,0.009224,0.009093,0.009704,0.999910,0.009787,-0.009224,-0.009703,0.999912,0.009093,0.009312,-0.009002,0.999916,0.009224,-0.009093,-0.999916,0.004478,0.002104,-0.068077,-0.000326,-0.006587,-0.005300,346.285370,350.748169,-1.000000,0.000000,0.000000
482149138.629468,-0.015060,-0.008316,-1.055466,0.009224,0.009093,0.009704,0.999910,0.009787,-0.009224,-0.009703,0.999912,0.009093,0.009312,-0.009002,0.999916,0.009224,-0.009093,-0.999916,0.004478,0.002104,-0.068077,-0.000326,-0.006587,-0.005300,346.285370,350.748169,-1.000000,0.000000,0.000000
482149138.640656,-0.108948,-0.019470,-1.063019,0.002691,0.008205,-0.000063,0.999996,-0.000041,-0.002691,0.000063,0.999966,0.008205,0.002690,-0.008205,0.999963,0.002691,-0.008205,-0.999963,0.083277,0.003826,-0.060630,0.004601,-0.000743,0.000941,346.285370,350.748169,-1.000000,0.000000,0.000000
482149138.650630,-0.108948,-0.019470,-1.063019,0.002691,0.008205,-0.000063,0.999996,-0.000041,-0.002691,0.000063,0.999966,0.008205,0.002690,-0.008205,0.999963,0.002691,-0.008205,-0.999963,0.083277,0.003826,-0.060630,0.004601,-0.000743,0.000941,346.285370,350.748169,-1.000000,0.000000,0.000000
482149138.660446,-0.132904,-0.011093,-1.066116,0.002700,0.008214,-0.000090,0.999996,-0.000068,-0.002700,0.000090,0.999966,0.008214,0.002699,-0.008214,0.999963,0.002700,-0.008214,-0.999963,0.031816,0.002797,-0.071799,0.000909,-0.001945,-0.001540,346.285370,350.748169,-1.000000,0.000000,0.000000
482149138.670222,0.011108,-0.022797,-1.064102,0.002702,0.008219,-0.000030,0.999996,-0.000008,-0.002702,0.000030,0.999966,0.008219,0.002701,-0.008219,0.999963,0.002702,-0.008219,-0.999963,-0.111649,-0.011251,-0.063056,-0.001561,-0.000797,-0.000318,346.285370,350.748169,-1.000000,0.000000,0.000000
482149138.679367,-0.077591,0.001633,-1.082382,0.002702,0.008219,-0.000030,0.999996,-0.000008,-0.002702,0.000030,0.999966,0.008219,0.002701,-0.008219,0.999963,0.002702,-0.008219,-0.999963,-0.111649,-0.011251,-0.063056,-0.001561,-0.000797,-0.000318,346.285370,350.748169,-1.000000,0.000000,0.000000
482149138.689390,-0.057770,-0.005524,-1.055756,0.002699,0.008156,-0.000087,0.999996,-0.000065,-0.002699,0.000087,0.999967,0.008156,0.002698,-0.008156,0.999963,0.002699,-0.008156,-0.999963,-0.135603,-0.002937,-0.066153,-0.007707,0.001416,-0.006498,346.285370,350.748169,-1.000000,0.000000,0.000000
482149138.699417,-0.055618,-0.011520,-1.057709,0.002690,0.008174,-0.000087,0.999996,-0.000065,-0.002690,0.000087,0.999967,0.008174,0.002689,-0.008174,0.999963,0.002690,-0.008174,-0.999963,-0.080280,0.009806,-0.082419,0.005829,-0.006498,0.002169,346.285370,350.748169,-1.000000,0.000000,0.000000
482149138.709388,0.079361,-0.020081,-1.054794,0.002690,0.008174,-0.000087,0.999996,-0.000065,-0.002690,0.000087,0.999967,0.008174,0.002689,-0.008174,0.999963,0.002690,-0.008174,-0.999963,-0.080280,0.009806,-0.082419,0.005829,-0.006498,0.002169,346.285370,350.748169,-1.000000,0.000000,0.000000
482149138.719249,0.104752,-0.000793,-1.065369,0.002648,0.008147,-0.000096,0.999996,-0.000075,-0.002648,0.000096,0.999967,0.008147,0.002647,-0.008147,0.999963,0.002648,-0.008147,-0.999963,-0.060418,0.002623,-0.055792,-0.006487,-0.003163,-0.002806,346.285370,350.748169,-1.000000,0.000000,0.000000
482149138.729447,0.193359,-0.017349,-1.059845,0.002583,0.008212,-0.000084,0.999997,-0.000063,-0.002583,0.000084,0.999966,0.008212,0.002582,-0.008212,0.999963,0.002583,-0.008212,-0.999963,-0.058201,-0.003308,-0.057746,0.008288,-0.006459,0.004642,346.285370,350.748169,-1.000000,0.000000,0.000000
482149138.740953,0.193359,-0.017349,-1.059845,0.002583,0.008212,-0.000084,0.999997,-0.000063,-0.002583,0.000084,0.999966,0.008212,0.002582,-0.008212,0.999963,0.002583,-0.008212,-0.999963,-0.058201,-0.003308,-0.057746,0.008288,-0.006459,0.004642,346.285370,350.748169,-1.000000,0.000000,0.000000
482149138.748829,0.004807,-0.005844,-1.069046,0.002576,0.008257,-0.000051,0.999997,-0.000030,-0.002575,0.000051,0.999966,0.008257,0.002575,-0.008257,0.999963,0.002575,-0.008257,-0.999963,0.076786,-0.011824,-0.054832,0.000889,-0.003047,0.004614,346.285370,350.748169,-1.000000,0.000000,0.000000
482149138.758822,0.029526,-0.006271,-1.063950,0.002589,0.008323,-0.000105,0.999997,-0.000084,-0.002589,0.000105,0.999965,0.008323,0.002588,-0.008323,0.999962,0.002589,-0.008323,-0.999962,0.190771,-0.009027,-0.059883,0.002147,0.000363,-0.002762,346.285370,350.748169,-1.000000,0.000000,0.000000
482149138.770842,0.083237,-0.016174,-1.053787,0.002589,0.008323,-0.000105,0.999997,-0.000084,-0.002589,0.000105,0.999965,0.008323,0.002588,-0.008323,0.999962,0.002589,-0.008323,-0.999962,0.190771,-0.009027,-0.059883,0.002147,0.000363,-0.002762,346.285370,350.748169,-1.000000,0.000000,0.000000
482149138.779346,0.096741,0.005234,-1.078156,0.002587,0.008343,-0.000132,0.999997,-0.000111,-0.002587,0.000132,0.999965,0.008343,0.002586,-0.008344,0.999962,0.002587,-0.008343,-0.999962,0.002220,0.002499,-0.069084,0.002143,-0.001936,-0.001534,346.285370,350.748169,-1.000000,0.000000,0.000000
482149138.789647,-0.013077,-0.004486,-1.069168,0.002606,0.008433,-0.000144,0.999997,-0.000122,-0.002606,0.000144,0.999964,0.008433,0.002605,-0.008433,0.999961,0.002606,-0.008433,-0.999961,0.080631,-0.007741,-0.053826,0.002136,0.002704,0.000935,346.285370,350.748169,-1.000000,0.000000,0.000000
482149138.800598,-0.030777,-0.015945,-1.052643,0.002599,0.008478,-0.000165,0.999997,-0.000143,-0.002599,0.000165,0.999964,0.008478,0.002597,-0.008478,0.999961,0.002599,-0.008478,-0.999961,0.080638,-0.007697,-0.053827,0.008305,-0.004192,-0.000279,346.285370,350.748169,-1.000000,0.000000,0.000000
482149138.809427,-0.133942,-0.010040,-1.062210,0.002599,0.008478,-0.000165,0.999997,-0.000143,-0.002599,0.000165,0.999964,0.008478,0.002597,-0.008478,0.999961,0.002599,-0.008478,-0.999961,0.080638,-0.007697,-0.053827,0.008305,-0.004192,-0.000279,346.285370,350.748169,-1.000000,0.000000,0.000000
482149138.819378,-0.031830,-0.007111,-1.071274,0.002550,0.008537,-0.000117,0.999997,-0.000095,-0.002550,0.000117,0.999964,0.008537,0.002549,-0.008537,0.999960,0.002550,-0.008537,-0.999960,-0.015627,0.004051,-0.069208,0.004602,0.003876,0.000948,346.285370,350.748169,-1.000000,0.000000,0.000000
482149138.829450,0.014771,-0.012863,-1.054276,0.002515,0.008606,-0.000114,0.999997,-0.000092,-0.002515,0.000114,0.999963,0.008606,0.002514,-0.008606,0.999960,0.002515,-0.008606,-0.999960,-0.033292,-0.007339,-0.052683,0.004617,-0.003094,-0.003987,346.285370,350.748169,-1.000000,0.000000,0.000000
482149138.839339,-0.081390,-0.005249,-1.080444,0.002515,0.008606,-0.000114,0.999997,-0.000092,-0.002515,0.000114,0.999963,0.008606,0.002514,-0.008606,0.999960,0.002515,-0.008606,-0.999960,-0.033292,-0.007339,-0.052683,0.004617,-0.003094,-0.003987,346.285370,350.748169,-1.000000,0.000000,0.000000
482149138.849370,-0.059586,-0.015320,-1.044037,0.002534,0.008630,-0.000144,0.999997,-0.000122,-0.002534,0.000144,0.999963,0.008630,0.002532,-0.008630,0.999960,0.002534,-0.008630,-0.999960,-0.034363,0.001519,-0.071314,0.004582,0.003928,0.007104,346.285370,350.748169,-1.000000,0.000000,0.000000
482149138.858380,-0.059586,-0.015320,-1.044037,0.002566,0.008662,-0.000057,0.999997,-0.000035,-0.002565,0.000057,0.999963,0.008662,0.002565,-0.008662,0.999959,0.002565,-0.008662,-0.999959,0.012205,-0.004201,-0.054316,0.003345,0.001620,0.008325,346.285370,350.748169,-1.000000,0.000000,0.000000
482149138.869162,-0.094284,-0.012756,-1.055069,0.002566,0.008662,-0.000057,0.999997,-0.000035,-0.002565,0.000057,0.999963,0.008662,0.002565,-0.008662,0.999959,0.002565,-0.008662,-0.999959,0.012205,-0.004201,-0.054316,0.003345,0.001620,0.008325,346.285370,350.748169,-1.000000,0.000000,0.000000
482149138.884595,-0.094284,-0.012756,-1.055069,0.002566,0.008662,-0.000057,0.999997,-0.000035,-0.002565,0.000057,0.999963,0.008662,0.002565,-0.008662,0.999959,0.002565,-0.008662,-0.999959,0.012205,-0.004201,-0.054316,0.003345,0.001620,0.008325,346.285370,350.748169,-1.000000,0.000000,0.000000
482149138.888666,0.132828,-0.009384,-1.081818,0.002605,0.008719,-0.000018,0.999997,0.000005,-0.002605,0.000018,0.999962,0.008719,0.002605,-0.008719,0.999959,0.002605,-0.008719,-0.999959,-0.062190,-0.006601,-0.044078,0.005836,0.005039,0.000956,346.285370,350.748169,-1.000000,0.000000,0.000000
482149138.899446,0.200195,-0.015457,-1.052933,0.002605,0.008719,-0.000018,0.999997,0.000005,-0.002605,0.000018,0.999962,0.008719,0.002605,-0.008719,0.999959,0.002605,-0.008719,-0.999959,-0.062190,-0.006601,-0.044078,0.005836,0.005039,0.000956,346.285370,350.748169,-1.000000,0.000000,0.000000
482149138.909299,0.014679,-0.005997,-1.066010,0.002708,0.008736,-0.000048,0.999996,-0.000024,-0.002708,0.000048,0.999962,0.008736,0.002707,-0.008736,0.999958,0.002708,-0.008736,-0.999958,0.063607,-0.003166,-0.058849,-0.005231,0.009496,-0.008936,346.285370,350.748169,-1.000000,0.000000,0.000000
482149138.919571,0.025665,-0.014023,-1.048309,0.002723,0.008811,-0.000033,0.999996,-0.000009,-0.002723,0.000033,0.999961,0.008811,0.002723,-0.008811,0.999958,0.002723,-0.008811,-0.999958,0.130105,-0.000573,-0.081860,0.009523,0.003942,0.004664,346.285370,350.748169,-1.000000,0.000000,0.000000
482149138.930889,0.079346,-0.018112,-1.058716,0.002723,0.008811,-0.000033,0.999996,-0.000009,-0.002723,0.000033,0.999961,0.008811,0.002723,-0.008811,0.999958,0.002723,-0.008811,-0.999958,0.130105,-0.000573,-0.081860,0.009523,0.003942,0.004664,346.285370,350.748169,-1.000000,0.000000,0.000000
482149138.939256,0.097885,0.000229,-1.079147,0.002718,0.008788,-0.000004,0.999996,0.000020,-0.002718,0.000004,0.999961,0.008788,0.002718,-0.008788,0.999958,0.002718,-0.008788,-0.999958,0.011961,0.002791,-0.066052,0.000983,-0.007698,0.003687,346.285370,350.748169,-1.000000,0.000000,0.000000
482149138.949359,0.009720,-0.002045,-1.079788,0.002688,0.008834,0.000020,0.999996,0.000044,-0.002688,-0.000020,0.999961,0.008834,0.002689,-0.008834,0.999957,0.002688,-0.008834,-0.999957,0.022977,-0.005189,-0.048352,0.003455,-0.003071,0.002474,346.285370,350.748169,-1.000000,0.000000,0.000000
482149138.960585,-0.087357,-0.013840,-1.048141,0.002661,0.008751,0.000008,0.999996,0.000031,-0.002661,-0.000008,0.999962,0.008751,0.002661,-0.008751,0.999958,0.002661,-0.008751,-0.999958,0.076685,-0.009361,-0.058758,-0.006418,0.003808,0.004903,346.285370,350.748169,-1.000000,0.000000,0.000000
482149138.969004,-0.087357,-0.013840,-1.048141,0.002661,0.008751,0.000008,0.999996,0.000031,-0.002661,-0.000008,0.999962,0.008751,0.002661,-0.008751,0.999958,0.002661,-0.008751,-0.999958,0.076685,-0.009361,-0.058758,-0.006418,0.003808,0.004903,346.285370,350.748169,-1.000000,0.000000,0.000000
482149138.979253,-0.196365,-0.010864,-1.067551,0.002687,0.008833,0.000038,0.999996,0.000062,-0.002687,-0.000038,0.999961,0.008833,0.002688,-0.008833,0.999957,0.002687,-0.008833,-0.999957,0.095198,0.009062,-0.079190,0.007163,-0.000757,0.000033,346.285370,350.748169,-1.000000,0.000000,0.000000
482149138.989160,-0.015030,-0.008347,-1.059387,0.002762,0.008912,0.000056,0.999996,0.000081,-0.002762,-0.000056,0.999960,0.008912,0.002763,-0.008912,0.999956,0.002762,-0.008912,-0.999956,-0.090118,-0.004928,-0.048185,0.008394,0.003881,0.001277,346.285370,350.748169,-1.000000,0.000000,0.000000
482149138.999584,0.009537,-0.004761,-1.046463,0.002762,0.008912,0.000056,0.999996,0.000081,-0.002762,-0.000056,0.999960,0.008912,0.002763,-0.008912,0.999956,0.002762,-0.008912,-0.999956,-0.090118,-0.004928,-0.048185,0.008394,0.003881,0.001277,346.285370,350.748169,-1.000000,0.000000,0.000000
482149139.009381,-0.064438,-0.008575,-1.085236,0.002816,0.008934,0.000020,0.999996,0.000045,-0.002816,-0.000020,0.999960,0.008934,0.002816,-0.008934,0.999956,0.002816,-0.008934,-0.999956,-0.199181,-0.001930,-0.067595,-0.000215,0.004912,-0.006147,346.285370,350.748169,-1.000000,0.000000,0.000000
482149139.019437,-0.039673,-0.013840,-1.062515,0.002778,0.008983,0.000014,0.999996,0.000039,-0.002778,-0.000014,0.999960,0.008983,0.002778,-0.008983,0.999956,0.002778,-0.008983,-0.999956,0.006759,0.004223,-0.046507,-0.000244,0.001521,0.002465,346.285370,350.748169,-1.000000,0.000000,0.000000
482149139.029473,-0.060776,-0.001572,-1.066559,0.002778,0.008983,0.000014,0.999996,0.000039,-0.002778,-0.000014,0.999960,0.008983,0.002778,-0.008983,0.999956,0.002778,-0.008983,-0.999956,0.006759,0.004223,-0.046507,-0.000244,0.001521,0.002465,346.285370,350.748169,-1.000000,0.000000,0.000000
482149139.039378,0.008621,-0.002884,-1.062149,0.002782,0.009005,0.000062,0.999996,0.000087,-0.002782,-0.000062,0.999959,0.009005,0.002782,-0.009005,0.999956,0.002782,-0.009005,-0.999956,-0.067220,0.000429,-0.085280,0.002207,0.001580,0.007400,346.285370,350.748169,-1.000000,0.000000,0.000000
482149139.049643,0.121765,-0.004166,-1.074081,0.002755,0.009030,0.000116,0.999996,0.000141,-0.002755,-0.000116,0.999959,0.009030,0.002756,-0.009030,0.999955,0.002755,-0.009030,-0.999955,-0.042428,-0.004809,-0.062560,0.003455,-0.004227,0.002473,346.285370,350.748169,-1.000000,0.000000,0.000000
482149139.061372,0.121765,-0.004166,-1.074081,0.002755,0.009030,0.000116,0.999996,0.000141,-0.002755,-0.000116,0.999959,0.009030,0.002756,-0.009030,0.999955,0.002755,-0.009030,-0.999955,-0.042428,-0.004809,-0.062560,0.003455,-0.004227,0.002473,346.285370,350.748169,-1.000000,0.000000,0.000000
482149139.068702,0.180450,-0.017075,-1.056015,0.002776,0.009088,0.000134,0.999996,0.000160,-0.002775,-0.000134,0.999959,0.009088,0.002777,-0.009088,0.999955,0.002775,-0.009088,-0.999955,-0.063551,0.007516,-0.066604,0.007155,0.000418,0.002497,346.285370,350.748169,-1.000000,0.000000,0.000000
482149139.079443,-0.005188,0.000229,-1.082825,0.002755,0.009125,0.000110,0.999996,0.000136,-0.002754,-0.000110,0.999958,0.009125,0.002756,-0.009125,0.999955,0.002754,-0.009125,-0.999955,0.119011,0.004960,-0.074127,0.002262,-0.000876,-0.009838,346.285370,350.748169,-1.000000,0.000000,0.000000
482149139.090139,0.026657,-0.014053,-1.051254,0.002755,0.009125,0.000110,0.999996,0.000136,-0.002754,-0.000110,0.999958,0.009125,0.002756,-0.009125,0.999955,0.002754,-0.009125,-0.999955,0.119011,0.004960,-0.074127,0.002262,-0.000876,-0.009838,346.285370,350.748169,-1.000000,0.000000,0.000000
482149139.099232,0.064301,-0.012817,-1.052948,0.002775,0.009129,0.000146,0.999996,0.000172,-0.002775,-0.000146,0.999958,0.009129,0.002776,-0.009129,0.999954,0.002775,-0.009129,-0.999954,0.177676,-0.007946,-0.056061,-0.001473,0.002656,0.001230,346.285370,350.748169,-1.000000,0.000000,0.000000
482149139.109443,0.105774,-0.006653,-1.049667,0.002787,0.009167,0.000105,0.999996,0.000130,-0.002787,-0.000105,0.999958,0.009166,0.002788,-0.009166,0.999954,0.002787,-0.009166,-0.999954,0.023870,-0.004887,-0.051300,0.000993,0.001519,0.001239,346.285370,350.748169,-1.000000,0.000000,0.000000
482149139.119779,0.088242,-0.019226,-1.050797,0.002787,0.009167,0.000105,0.999996,0.000130,-0.002787,-0.000105,0.999958,0.009166,0.002788,-0.009166,0.999954,0.002787,-0.009166,-0.999954,0.023870,-0.004887,-0.051300,0.000993,0.001519,0.001239,346.285370,350.748169,-1.000000,0.000000,0.000000
482149139.129449,-0.056625,-0.013443,-1.051849,0.002769,0.009212,0.000045,0.999996,0.000070,-0.002769,-0.000045,0.999958,0.009212,0.002769,-0.009212,0.999954,0.002769,-0.009212,-0.999954,0.023889,-0.004841,-0.051301,0.007190,-0.003140,-0.008589,346.285370,350.748169,-1.000000,0.000000,0.000000
482149139.139735,-0.155731,-0.006760,-1.078049,0.002781,0.009232,0.000003,0.999996,0.000029,-0.002781,-0.000003,0.999957,0.009232,0.002781,-0.009232,0.999954,0.002781,-0.009232,-0.999954,0.102993,0.002579,-0.049714,-0.002695,0.000307,-0.002473,346.285370,350.748169,-1.000000,0.000000,0.000000
482149139.150201,-0.004318,-0.002579,-1.053421,0.002779,0.009235,-0.000015,0.999996,0.000011,-0.002779,0.000015,0.999957,0.009235,0.002779,-0.009235,0.999954,0.002779,-0.009235,-0.999954,0.085463,-0.009991,-0.050843,0.004709,0.001504,-0.003668,346.285370,350.748169,-1.000000,0.000000,0.000000
482149139.160207,-0.004318,-0.002579,-1.053421,0.002779,0.009235,-0.000015,0.999996,0.000011,-0.002779,0.000015,0.999957,0.009235,0.002779,-0.009235,0.999954,0.002779,-0.009235,-0.999954,0.085463,-0.009991,-0.050843,0.004709,0.001504,-0.003668,346.285370,350.748169,-1.000000,0.000000,0.000000
482149139.169130,0.024445,-0.005081,-1.050247,0.002842,0.009291,-0.000051,0.999996,-0.000024,-0.002842,0.000051,0.999957,0.009291,0.002842,-0.009291,0.999953,0.002842,-0.009291,-0.999953,-0.158573,0.002531,-0.078096,-0.000220,0.003768,-0.004918,346.285370,350.748169,-1.000000,0.000000,0.000000
482149139.180549,-0.080368,-0.009140,-1.069672,0.002846,0.009294,-0.000039,0.999996,-0.000012,-0.002846,0.000039,0.999957,0.009294,0.002845,-0.009294,0.999953,0.002846,-0.009294,-0.999953,-0.007164,0.006716,-0.053468,-0.003936,0.002628,-0.000013,346.285370,350.748169,-1.000000,0.000000,0.000000
482149139.188363,-0.046661,-0.008835,-1.072357,0.002846,0.009294,-0.000039,0.999996,-0.000012,-0.002846,0.000039,0.999957,0.009294,0.002845,-0.009294,0.999953,0.002846,-0.009294,-0.999953,-0.007164,0.006716,-0.053468,-0.003936,0.002628,-0.000013,346.285370,350.748169,-1.000000,0.000000,0.000000
482149139.199105,-0.069412,-0.013306,-1.065659,0.002915,0.009362,-0.000003,0.999996,0.000025,-0.002915,0.000003,0.999956,0.009362,0.002915,-0.009362,0.999952,0.002915,-0.009362,-0.999952,0.021530,0.004281,-0.050295,0.010855,-0.000710,0.002511,346.285370,350.748169,-1.000000,0.000000,0.000000
482149139.209454,0.000793,-0.009613,-1.052414,0.002935,0.009390,0.000063,0.999996,0.000091,-0.002935,-0.000063,0.999956,0.009389,0.002936,-0.009389,0.999952,0.002935,-0.009389,-0.999952,-0.083303,0.000249,-0.069720,-0.000260,0.003872,0.007392,346.285370,350.748169,-1.000000,0.000000,0.000000
482149139.219583,0.079285,-0.010269,-1.074402,0.002935,0.009390,0.000063,0.999996,0.000091,-0.002935,-0.000063,0.999956,0.009389,0.002936,-0.009389,0.999952,0.002935,-0.009389,-0.999952,-0.083303,0.000249,-0.069720,-0.000260,0.003872,0.007392,346.285370,350.748169,-1.000000,0.000000,0.000000
482149139.229237,0.168457,-0.015808,-1.050217,0.002875,0.009445,-0.000008,0.999996,0.000019,-0.002875,0.000008,0.999955,0.009445,0.002875,-0.009445,0.999951,0.002875,-0.009445,-0.999951,-0.072287,-0.003861,-0.065707,0.003467,-0.001949,-0.001218,346.285370,350.748169,-1.000000,0.000000,0.000000
482149139.239441,0.047394,-0.003738,-1.075577,0.002861,0.009425,0.000015,0.999996,0.000042,-0.002861,-0.000015,0.999956,0.009424,0.002861,-0.009424,0.999951,0.002861,-0.009424,-0.999951,-0.002068,-0.000189,-0.052462,0.000992,-0.000790,0.001235,346.285370,350.748169,-1.000000,0.000000,0.000000
482149139.249582,0.048401,-0.010544,-1.055008,0.002861,0.009425,0.000015,0.999996,0.000042,-0.002861,-0.000015,0.999956,0.009424,0.002861,-0.009424,0.999951,0.002861,-0.009424,-0.999951,-0.002068,-0.000189,-0.052462,0.000992,-0.000790,0.001235,346.285370,350.748169,-1.000000,0.000000,0.000000
482149139.259413,0.048401,-0.010544,-1.055008,0.002851,0.009474,0.000022,0.999996,0.000049,-0.002851,-0.000022,0.999955,0.009474,0.002852,-0.009474,0.999951,0.002851,-0.009474,-0.999951,0.165606,-0.006334,-0.050266,0.002233,-0.004267,-0.001227,346.285370,350.748169,-1.000000,0.000000,0.000000
482149139.270283,0.097946,-0.005646,-1.067383,0.002838,0.009496,0.000040,0.999996,0.000066,-0.002838,-0.000040,0.999955,0.009496,0.002839,-0.009495,0.999951,0.002838,-0.009496,-0.999951,0.044556,0.005757,-0.075626,0.008376,-0.004161,0.006187,346.285370,350.748169,-1.000000,0.000000,0.000000
482149139.281091,0.102997,-0.009689,-1.066376,0.002838,0.009496,0.000040,0.999996,0.000066,-0.002838,-0.000040,0.999955,0.009496,0.002839,-0.009495,0.999951,0.002838,-0.009496,-0.999951,0.044556,0.005757,-0.075626,0.008376,-0.004161,0.006187,346.285370,350.748169,-1.000000,0.000000,0.000000
482149139.289220,0.063492,-0.015884,-1.067642,0.002862,0.009515,0.000064,0.999996,0.000091,-0.002862,-0.000064,0.999955,0.009515,0.002862,-0.009515,0.999951,0.002862,-0.009515,-0.999951,0.045539,-0.001029,-0.055057,-0.005170,-0.000845,-0.000024,346.285370,350.748169,-1.000000,0.000000,0.000000
482149139.299423,-0.099228,-0.011688,-1.059998,0.002859,0.009501,0.000070,0.999996,0.000097,-0.002859,-0.000070,0.999955,0.009501,0.002860,-0.009500,0.999951,0.002859,-0.009501,-0.999951,0.095087,0.003855,-0.067432,0.002226,0.000373,0.001242,346.285370,350.748169,-1.000000,0.000000,0.000000
482149139.310127,-0.194489,-0.007889,-1.063629,0.002906,0.009580,0.000172,0.999996,0.000199,-0.002906,-0.000171,0.999954,0.009580,0.002908,-0.009579,0.999950,0.002906,-0.009580,-0.999950,0.060586,-0.006304,-0.067692,-0.003913,0.000256,-0.007403,346.285370,350.748169,-1.000000,0.000000,0.000000
482149139.320680,-0.018082,-0.004364,-1.065277,0.002906,0.009580,0.000172,0.999996,0.000199,-0.002906,-0.000171,0.999954,0.009580,0.002908,-0.009579,0.999950,0.002906,-0.009580,-0.999950,0.060586,-0.006304,-0.067692,-0.003913,0.000256,-0.007403,346.285370,350.748169,-1.000000,0.000000,0.000000
482149139.329240,0.000824,-0.008652,-1.059280,0.002887,0.009584,0.000213,0.999996,0.000241,-0.002887,-0.000213,0.999954,0.009584,0.002889,-0.009583,0.999950,0.002887,-0.009584,-0.999950,-0.102115,-0.002105,-0.060048,0.003455,-0.001917,0.002475,346.285370,350.748169,-1.000000,0.000000,0.000000
482149139.339563,-0.064499,-0.012360,-1.060730,0.002950,0.009585,0.000196,0.999996,0.000224,-0.002950,-0.000196,0.999954,0.009585,0.002952,-0.009584,0.999950,0.002950,-0.009585,-0.999950,-0.197438,0.001696,-0.063679,0.002227,0.002682,0.001246,346.285370,350.748169,-1.000000,0.000000,0.000000
482149139.349277,-0.018753,-0.018219,-1.060394,0.002950,0.009585,0.000196,0.999996,0.000224,-0.002950,-0.000196,0.999954,0.009585,0.002952,-0.009584,0.999950,0.002950,-0.009585,-0.999950,-0.197438,0.001696,-0.063679,0.002227,0.002682,0.001246,346.285370,350.748169,-1.000000,0.000000,0.000000
482149139.359621,-0.018753,-0.018219,-1.060394,0.002953,0.009589,0.000178,0.999996,0.000206,-0.002953,-0.000178,0.999954,0.009589,0.002955,-0.009588,0.999950,0.002953,-0.009589,-0.999950,-0.021035,0.005225,-0.065327,-0.001470,0.000336,-0.000006,346.285370,350.748169,-1.000000,0.000000,0.000000
482149139.368605,-0.039825,-0.005951,-1.067398,0.002870,0.009632,0.000255,0.999996,0.000283,-0.002870,-0.000255,0.999954,0.009632,0.002873,-0.009631,0.999950,0.002870,-0.009632,-0.999950,-0.067369,-0.002728,-0.060780,-0.002701,-0.006612,-0.001254,346.285370,350.748169,-1.000000,0.000000,0.000000
482149139.379017,0.067169,-0.005997,-1.062683,0.002870,0.009632,0.000255,0.999996,0.000283,-0.002870,-0.000255,0.999954,0.009632,0.002873,-0.009631,0.999950,0.002870,-0.009632,-0.999950,-0.067369,-0.002728,-0.060780,-0.002701,-0.006612,-0.001254,346.285370,350.748169,-1.000000,0.000000,0.000000
482149139.389153,0.096008,-0.008560,-1.065430,0.002784,0.009654,0.000279,0.999996,0.000306,-0.002784,-0.000279,0.999953,0.009654,0.002787,-0.009653,0.999950,0.002784,-0.009654,-0.999950,-0.021537,-0.008565,-0.060445,0.003453,-0.008846,0.002464,346.285370,350.748169,-1.000000,0.000000,0.000000
482149139.399379,0.158661,-0.017654,-1.059113,0.002813,0.009679,0.000255,0.999996,0.000283,-0.002813,-0.000255,0.999953,0.009679,0.002816,-0.009678,0.999949,0.002813,-0.009679,-0.999949,0.064356,0.003682,-0.062734,-0.003924,0.002597,-0.003707,346.285370,350.748169,-1.000000,0.000000,0.000000
482149139.409800,0.014679,-0.003098,-1.076797,0.002813,0.009679,0.000255,0.999996,0.000283,-0.002813,-0.000255,0.999953,0.009679,0.002816,-0.009678,0.999949,0.002813,-0.009679,-0.999949,0.064356,0.003682,-0.062734,-0.003924,0.002597,-0.003707,346.285370,350.748169,-1.000000,0.000000,0.000000
482149139.419147,0.033585,-0.013214,-1.052170,0.002789,0.009695,0.000273,0.999996,0.000300,-0.002789,-0.000273,0.999953,0.009695,0.002791,-0.009694,0.999949,0.002789,-0.009695,-0.999949,0.093220,0.001135,-0.065481,0.004709,0.001503,-0.003669,346.285370,350.748169,-1.000000,0.000000,0.000000
482149139.429489,0.101105,-0.012634,-1.069321,0.002846,0.009750,0.000357,0.999996,0.000385,-0.002846,-0.000357,0.999952,0.009750,0.002850,-0.009749,0.999948,0.002846,-0.009750,-0.999948,0.011833,0.006653,-0.076849,0.009621,-0.001874,0.002503,346.285370,350.748169,-1.000000,0.000000,0.000000
482149139.441063,0.132706,-0.012161,-1.053421,0.002846,0.009750,0.000357,0.999996,0.000385,-0.002846,-0.000357,0.999952,0.009750,0.002850,-0.009749,0.999948,0.002846,-0.009750,-0.999948,0.011833,0.006653,-0.076849,0.009621,-0.001874,0.002503,346.285370,350.748169,-1.000000,0.000000,0.000000
482149139.449290,0.073380,-0.022827,-1.039169,0.002810,0.009742,0.000363,0.999996,0.000391,-0.002810,-0.000363,0.999952,0.009742,0.002814,-0.009741,0.999949,0.002810,-0.009742,-0.999949,0.011869,0.006644,-0.076849,-0.002708,-0.004281,0.001212,346.285370,350.748169,-1.000000,0.000000,0.000000
482149139.459251,-0.003830,-0.017593,-1.070084,0.002761,0.009749,0.000483,0.999996,0.000510,-0.002761,-0.000483,0.999952,0.009749,0.002766,-0.009748,0.999949,0.002761,-0.009749,-0.999949,0.098344,-0.002885,-0.069372,-0.000262,-0.005366,0.007377,346.285370,350.748169,-1.000000,0.000000,0.000000
482149139.471138,-0.175568,-0.006393,-1.080139,0.002748,0.009807,0.000489,0.999996,0.000516,-0.002748,-0.000489,0.999952,0.009807,0.002753,-0.009805,0.999948,0.002748,-0.009807,-0.999948,0.129958,-0.002354,-0.053473,0.004692,-0.000764,0.001251,346.285370,350.748169,-1.000000,0.000000,0.000000
482149139.479902,-0.175568,-0.006393,-1.080139,0.002748,0.009807,0.000489,0.999996,0.000516,-0.002748,-0.000489,0.999952,0.009807,0.002753,-0.009805,0.999948,0.002748,-0.009807,-0.999948,0.129958,-0.002354,-0.053473,0.004692,-0.000764,0.001251,346.285370,350.748169,-1.000000,0.000000,0.000000
482149139.489247,0.003723,-0.004745,-1.060211,0.002800,0.009862,0.000501,0.999996,0.000529,-0.002800,-0.000501,0.999951,0.009862,0.002805,-0.009861,0.999947,0.002800,-0.009862,-0.999947,-0.006630,-0.007731,-0.070136,0.003460,0.003846,0.001253,346.285370,350.748169,-1.000000,0.000000,0.000000
482149139.499665,0.003906,-0.011734,-1.064148,0.002826,0.009860,0.000537,0.999996,0.000565,-0.002825,-0.000537,0.999951,0.009860,0.002831,-0.009858,0.999947,0.002825,-0.009860,-0.999947,-0.178393,0.003466,-0.080192,-0.001486,0.002687,0.004922,346.285370,350.748169,-1.000000,0.000000,0.000000
482149139.509579,-0.091339,-0.010818,-1.056015,0.002826,0.009860,0.000537,0.999996,0.000565,-0.002825,-0.000537,0.999951,0.009860,0.002831,-0.009858,0.999947,0.002825,-0.009860,-0.999947,-0.178393,0.003466,-0.080192,-0.001486,0.002687,0.004922,346.285370,350.748169,-1.000000,0.000000,0.000000
482149139.519432,-0.024719,-0.018097,-1.059464,0.002889,0.009963,0.000597,0.999996,0.000626,-0.002889,-0.000597,0.999950,0.009963,0.002895,-0.009961,0.999946,0.002889,-0.009963,-0.999946,0.000834,0.005218,-0.060265,0.009634,0.000404,-0.001187,346.285370,350.748169,-1.000000,0.000000,0.000000
482149139.529881,-0.056564,-0.009598,-1.071457,0.002820,0.009991,0.000573,0.999996,0.000601,-0.002820,-0.000573,0.999950,0.009991,0.002825,-0.009989,0.999946,0.002820,-0.009991,-0.999946,0.001087,-0.001743,-0.064202,0.004710,-0.007746,-0.004915,346.285370,350.748169,-1.000000,0.000000,0.000000
482149139.539501,0.026718,-0.015091,-1.056168,0.002820,0.009991,0.000573,0.999996,0.000601,-0.002820,-0.000573,0.999950,0.009991,0.002825,-0.009989,0.999946,0.002820,-0.009991,-0.999946,0.001087,-0.001743,-0.064202,0.004710,-0.007746,-0.004915,346.285370,350.748169,-1.000000,0.000000,0.000000
482149139.549356,0.131638,-0.007202,-1.059296,0.002844,0.010088,0.000663,0.999996,0.000692,-0.002844,-0.000663,0.999949,0.010088,0.002851,-0.010086,0.999945,0.002844,-0.010088,-0.999945,-0.027563,-0.008009,-0.059518,0.003440,0.003898,0.007408,346.285370,350.748169,-1.000000,0.000000,0.000000
482149139.559489,0.187347,-0.017166,-1.051071,0.002813,0.010092,0.000705,0.999996,0.000734,-0.002813,-0.000705,0.999949,0.010092,0.002821,-0.010090,0.999945,0.002813,-0.010092,-0.999945,-0.059378,0.000494,-0.071512,-0.001475,-0.004273,0.001217,346.285370,350.748169,-1.000000,0.000000,0.000000
482149139.569876,0.187347,-0.017166,-1.051071,0.002813,0.010092,0.000705,0.999996,0.000734,-0.002813,-0.000705,0.999949,0.010092,0.002821,-0.010090,0.999945,0.002813,-0.010092,-0.999945,-0.059378,0.000494,-0.071512,-0.001475,-0.004273,0.001217,346.285370,350.748169,-1.000000,0.000000,0.000000
482149139.578724,0.033508,-0.009247,-1.055115,0.002883,0.010171,0.000741,0.999996,0.000771,-0.002882,-0.000741,0.999948,0.010171,0.002890,-0.010169,0.999944,0.002882,-0.010171,-0.999944,0.128755,0.002969,-0.059352,0.012096,0.000432,0.000055,346.285370,350.748169,-1.000000,0.000000,0.000000
482149139.589253,0.063583,-0.019867,-1.067642,0.002875,0.010229,0.000741,0.999996,0.000771,-0.002875,-0.000741,0.999947,0.010229,0.002883,-0.010227,0.999944,0.002875,-0.010229,-0.999944,0.184473,-0.006937,-0.051128,0.007162,-0.001912,0.000029,346.285370,350.748169,-1.000000,0.000000,0.000000
482149139.599567,0.124878,-0.014069,-1.065231,0.002875,0.010229,0.000741,0.999996,0.000771,-0.002875,-0.000741,0.999947,0.010229,0.002883,-0.010227,0.999944,0.002875,-0.010229,-0.999944,0.184473,-0.006937,-0.051128,0.007162,-0.001912,0.000029,346.285370,350.748169,-1.000000,0.000000,0.000000
482149139.609029,0.141663,-0.010422,-1.065109,0.002905,0.010284,0.000819,0.999995,0.000849,-0.002904,-0.000819,0.999947,0.010284,0.002913,-0.010282,0.999943,0.002904,-0.010284,-0.999943,0.030604,0.001037,-0.055172,0.009627,0.007354,0.001286,346.285370,350.748169,-1.000000,0.000000,0.000000
482149139.619733,0.052505,-0.018539,-1.049103,0.002913,0.010210,0.000825,0.999995,0.000855,-0.002913,-0.000825,0.999948,0.010210,0.002921,-0.010208,0.999944,0.002913,-0.010210,-0.999944,0.060671,-0.009657,-0.067699,-0.008878,-0.000850,0.002420,346.285370,350.748169,-1.000000,0.000000,0.000000
482149139.630038,-0.026062,-0.002228,-1.063354,0.002913,0.010210,0.000825,0.999995,0.000855,-0.002913,-0.000825,0.999948,0.010210,0.002921,-0.010208,0.999944,0.002913,-0.010210,-0.999944,0.060671,-0.009657,-0.067699,-0.008878,-0.000850,0.002420,346.285370,350.748169,-1.000000,0.000000,0.000000
482149139.639379,-0.110245,-0.009460,-1.053207,0.002937,0.010284,0.000826,0.999995,0.000857,-0.002937,-0.000826,0.999947,0.010284,0.002945,-0.010281,0.999943,0.002937,-0.010284,-0.999943,0.138726,-0.000138,-0.065166,0.005957,0.002669,-0.002355,346.285370,350.748169,-1.000000,0.000000,0.000000
482149139.649588,-0.021820,-0.013229,-1.066299,0.002957,0.010270,0.000845,0.999995,0.000876,-0.002957,-0.000845,0.999947,0.010270,0.002966,-0.010267,0.999943,0.002957,-0.010270,-0.999943,0.049549,-0.008270,-0.049160,0.002229,0.001561,0.006243,346.285370,350.748169,-1.000000,0.000000,0.000000
482149139.660691,-0.012085,-0.005493,-1.065231,0.002957,0.010270,0.000845,0.999995,0.000876,-0.002957,-0.000845,0.999947,0.010270,0.002966,-0.010267,0.999943,0.002957,-0.010270,-0.999943,0.049549,-0.008270,-0.049160,0.002229,0.001561,0.006243,346.285370,350.748169,-1.000000,0.000000,0.000000
482149139.669126,-0.102219,-0.013565,-1.049240,0.002964,0.010331,0.000901,0.999995,0.000931,-0.002964,-0.000901,0.999946,0.010331,0.002973,-0.010329,0.999942,0.002964,-0.010331,-0.999942,-0.113208,0.000871,-0.053265,0.004715,-0.000783,0.000095,346.285370,350.748169,-1.000000,0.000000,0.000000
482149139.679471,-0.047607,-0.008865,-1.081192,0.002945,0.010359,0.000931,0.999995,0.000962,-0.002945,-0.000931,0.999946,0.010359,0.002954,-0.010356,0.999942,0.002945,-0.010359,-0.999942,-0.024765,-0.002870,-0.066357,0.000998,-0.003077,0.004999,346.285370,350.748169,-1.000000,0.000000,0.000000
482149139.690175,-0.042023,-0.001846,-1.052704,0.002918,0.010403,0.001017,0.999995,0.001047,-0.002918,-0.001017,0.999945,0.010403,0.002928,-0.010400,0.999942,0.002918,-0.010403,-0.999942,-0.015003,0.004910,-0.065290,0.007186,0.000378,-0.001123,346.285370,350.748169,-1.000000,0.000000,0.000000
482149139.699317,-0.042023,-0.001846,-1.052704,0.002918,0.010403,0.001017,0.999995,0.001047,-0.002918,-0.001017,0.999945,0.010403,0.002928,-0.010400,0.999942,0.002918,-0.010403,-0.999942,-0.015003,0.004910,-0.065290,0.007186,0.000378,-0.001123,346.285370,350.748169,-1.000000,0.000000,0.000000
482149139.709041,0.033615,-0.009354,-1.069809,0.002938,0.010383,0.001095,0.999995,0.001126,-0.002937,-0.001095,0.999946,0.010383,0.002949,-0.010379,0.999942,0.002937,-0.010383,-0.999942,-0.105156,-0.003182,-0.049298,-0.007662,0.000399,0.013582,346.285370,350.748169,-1.000000,0.000000,0.000000
482149139.719483,0.063217,-0.008820,-1.051956,0.002973,0.010445,0.001097,0.999995,0.001128,-0.002973,-0.001097,0.999945,0.010444,0.002984,-0.010441,0.999941,0.002973,-0.010444,-0.999941,-0.044995,0.008598,-0.052763,0.005956,-0.003105,-0.002365,346.285370,350.748169,-1.000000,0.000000,0.000000
482149139.729328,0.176575,-0.017090,-1.069778,0.002973,0.010445,0.001097,0.999995,0.001128,-0.002973,-0.001097,0.999945,0.010444,0.002984,-0.010441,0.999941,0.002973,-0.010444,-0.999941,-0.044995,0.008598,-0.052763,0.005956,-0.003105,-0.002365,346.285370,350.748169,-1.000000,0.000000,0.000000
482149139.739325,0.038330,-0.002441,-1.058990,0.002959,0.010424,0.001103,0.999995,0.001134,-0.002959,-0.001103,0.999945,0.010424,0.002971,-0.010421,0.999941,0.002959,-0.010424,-0.999941,0.030656,0.001071,-0.069868,-0.002685,-0.003145,0.000058,346.285370,350.748169,-1.000000,0.000000,0.000000
482149139.749429,0.057709,-0.018845,-1.079453,0.002954,0.010378,0.001075,0.999995,0.001106,-0.002954,-0.001075,0.999946,0.010378,0.002965,-0.010375,0.999942,0.002954,-0.010378,-0.999942,0.060263,0.001559,-0.052014,-0.005147,-0.000864,-0.001181,346.285370,350.748169,-1.000000,0.000000,0.000000
482149139.759339,0.087967,-0.007324,-1.051758,0.002954,0.010378,0.001075,0.999995,0.001106,-0.002954,-0.001075,0.999946,0.010378,0.002965,-0.010375,0.999942,0.002954,-0.010378,-0.999942,0.060263,0.001559,-0.052014,-0.005147,-0.000864,-0.001181,346.285370,350.748169,-1.000000,0.000000,0.000000
482149139.769449,0.112061,-0.011948,-1.079056,0.002935,0.010370,0.001064,0.999995,0.001094,-0.002935,-0.001064,0.999946,0.010370,0.002946,-0.010367,0.999942,0.002935,-0.010370,-0.999942,0.173640,-0.006720,-0.069837,-0.002685,-0.001990,0.000060,346.285370,350.748169,-1.000000,0.000000,0.000000
482149139.779819,0.051376,-0.012543,-1.048126,0.002879,0.010330,0.001119,0.999995,0.001149,-0.002879,-0.001119,0.999946,0.010330,0.002891,-0.010326,0.999942,0.002879,-0.010330,-0.999942,0.054830,-0.008515,-0.079510,0.003471,-0.006561,0.001335,346.285370,350.748169,-1.000000,0.000000,0.000000
482149139.791695,0.051376,-0.012543,-1.048126,0.002879,0.010330,0.001119,0.999995,0.001149,-0.002879,-0.001119,0.999946,0.010330,0.002891,-0.010326,0.999942,0.002879,-0.010330,-0.999942,0.054830,-0.008515,-0.079510,0.003471,-0.006561,0.001335,346.285370,350.748169,-1.000000,0.000000,0.000000
482149139.799293,-0.010223,-0.002502,-1.059341,0.002866,0.010376,0.001138,0.999995,0.001168,-0.002866,-0.001138,0.999946,0.010375,0.002878,-0.010372,0.999942,0.002866,-0.010375,-0.999942,0.085101,0.003051,-0.051816,0.005947,-0.001946,-0.001109,346.285370,350.748169,-1.000000,0.000000,0.000000
482149139.809187,-0.094208,-0.014771,-1.059967,0.002878,0.010455,0.001170,0.999995,0.001200,-0.002878,-0.001170,0.999945,0.010455,0.002891,-0.010452,0.999941,0.002878,-0.010455,-0.999941,0.048498,-0.002088,-0.048185,0.003477,0.000357,0.000115,346.285370,350.748169,-1.000000,0.000000,0.000000
482149139.820263,-0.010941,-0.011475,-1.068176,0.002893,0.010477,0.001159,0.999995,0.001189,-0.002893,-0.001159,0.999944,0.010477,0.002905,-0.010473,0.999941,0.002893,-0.010477,-0.999941,-0.013116,0.007974,-0.059400,0.003497,0.000304,-0.006041,346.285370,350.748169,-1.000000,0.000000,0.000000
482149139.829455,-0.022980,-0.011124,-1.049652,0.002893,0.010477,0.001159,0.999995,0.001189,-0.002893,-0.001159,0.999944,0.010477,0.002905,-0.010473,0.999941,0.002893,-0.010477,-0.999941,-0.013116,0.007974,-0.059400,0.003497,0.000304,-0.006041,346.285370,350.748169,-1.000000,0.000000,0.000000
482149139.839344,-0.076385,-0.009232,-1.072571,0.002832,0.010491,0.001179,0.999995,0.001209,-0.002832,-0.001179,0.999944,0.010491,0.002844,-0.010487,0.999941,0.002832,-0.010491,-0.999941,-0.097040,-0.004280,-0.060026,0.003483,-0.005438,-0.002357,346.285370,350.748169,-1.000000,0.000000,0.000000
482149139.850160,-0.024796,-0.017044,-1.050629,0.002796,0.010483,0.001186,0.999995,0.001215,-0.002796,-0.001186,0.999944,0.010482,0.002808,-0.010479,0.999941,0.002796,-0.010482,-0.999941,-0.013736,-0.000992,-0.068235,-0.001473,-0.000791,0.005014,346.285370,350.748169,-1.000000,0.000000,0.000000
482149139.859446,-0.051727,-0.005737,-1.069458,0.002796,0.010483,0.001186,0.999995,0.001215,-0.002796,-0.001186,0.999944,0.010482,0.002808,-0.010479,0.999941,0.002796,-0.010482,-0.999941,-0.013736,-0.000992,-0.068235,-0.001473,-0.000791,0.005014,346.285370,350.748169,-1.000000,0.000000,0.000000
482149139.869592,0.026855,-0.015213,-1.074783,0.002792,0.010568,0.001260,0.999995,0.001289,-0.002791,-0.001260,0.999943,0.010568,0.002805,-0.010564,0.999940,0.002791,-0.010568,-0.999940,-0.079177,0.001336,-0.072631,0.002220,0.000410,0.007495,346.285370,350.748169,-1.000000,0.000000,0.000000
482149139.889535,0.109894,-0.012695,-1.051620,0.002807,0.010638,0.001297,0.999995,0.001327,-0.002806,-0.001297,0.999943,0.010638,0.002820,-0.010634,0.999940,0.002806,-0.010638,-0.999940,-0.027602,-0.006406,-0.050689,0.005936,0.001550,0.002590,346.285370,350.748169,-1.000000,0.000000,0.000000
482149139.899300,0.109894,-0.012695,-1.051620,0.002779,0.010658,0.001275,0.999995,0.001304,-0.002779,-0.001275,0.999942,0.010657,0.002793,-0.010654,0.999939,0.002779,-0.010657,-0.999939,0.024076,-0.004556,-0.074844,0.001022,0.000308,-0.003590,346.285370,350.748169,-1.000000,0.000000,0.000000
482149139.909669,0.046417,-0.007599,-1.064804,0.002783,0.010673,0.001294,0.999995,0.001323,-0.002783,-0.001293,0.999942,0.010673,0.002797,-0.010670,0.999939,0.002783,-0.010673,-0.999939,0.080378,-0.000588,-0.060699,0.001002,0.001515,0.002567,346.285370,350.748169,-1.000000,0.000000,0.000000
482149139.920397,0.089310,-0.020294,-1.058640,0.002783,0.010673,0.001294,0.999995,0.001323,-0.002783,-0.001293,0.999942,0.010673,0.002797,-0.010670,0.999939,0.002783,-0.010673,-0.999939,0.080378,-0.000588,-0.060699,0.001002,0.001515,0.002567,346.285370,350.748169,-1.000000,0.000000,0.000000
482149139.929080,0.115005,-0.016815,-1.057480,0.002733,0.010717,0.001301,0.999995,0.001331,-0.002733,-0.001301,0.999942,0.010717,0.002747,-0.010713,0.999939,0.002733,-0.010717,-0.999939,0.107161,-0.001978,-0.051682,0.003485,-0.000819,-0.002350,346.285370,350.748169,-1.000000,0.000000,0.000000
482149139.939483,0.125809,-0.009186,-1.071106,0.002765,0.010757,0.001315,0.999995,0.001344,-0.002765,-0.001315,0.999941,0.010757,0.002779,-0.010753,0.999938,0.002765,-0.010757,-0.999938,0.043653,0.003158,-0.064866,0.003464,0.002660,0.000139,346.285370,350.748169,-1.000000,0.000000,0.000000
482149139.948742,0.061356,-0.015686,-1.045120,0.002765,0.010757,0.001315,0.999995,0.001344,-0.002765,-0.001315,0.999941,0.010757,0.002779,-0.010753,0.999938,0.002765,-0.010757,-0.999938,0.043653,0.003158,-0.064866,0.003464,0.002660,0.000139,346.285370,350.748169,-1.000000,0.000000,0.000000
482149139.959265,-0.012070,-0.002609,-1.077972,0.002799,0.010710,0.001293,0.999995,0.001323,-0.002799,-0.001293,0.999942,0.010710,0.002813,-0.010706,0.999939,0.002799,-0.010710,-0.999939,0.112207,-0.006105,-0.057541,0.000989,0.004973,0.002593,346.285370,350.748169,-1.000000,0.000000,0.000000
482149139.969460,-0.104248,-0.014435,-1.041412,0.002825,0.010738,0.001324,0.999995,0.001355,-0.002824,-0.001324,0.999941,0.010738,0.002839,-0.010734,0.999938,0.002824,-0.010738,-0.999938,0.122984,0.001552,-0.071168,0.002223,0.004981,0.002599,346.285370,350.748169,-1.000000,0.000000,0.000000
482149139.981043,-0.019852,-0.016174,-1.055511,0.002797,0.010727,0.001291,0.999995,0.001321,-0.002797,-0.001290,0.999942,0.010727,0.002811,-0.010723,0.999939,0.002797,-0.010727,-0.999939,-0.014867,0.008118,-0.078034,0.000990,-0.006586,0.001344,346.285370,350.748169,-1.000000,0.000000,0.000000
482149139.990024,-0.029770,-0.014999,-1.055573,0.002797,0.010727,0.001291,0.999995,0.001321,-0.002797,-0.001290,0.999942,0.010727,0.002811,-0.010723,0.999939,0.002797,-0.010727,-0.999939,-0.014867,0.008118,-0.078034,0.000990,-0.006586,0.001344,346.285370,350.748169,-1.000000,0.000000,0.000000
482149140.000657,-0.088333,-0.010910,-1.060898,0.002772,0.010743,0.001304,0.999995,0.001333,-0.002772,-0.001304,0.999941,0.010743,0.002786,-0.010739,0.999938,0.002772,-0.010743,-0.999938,-0.014842,0.008133,-0.078034,-0.000245,-0.000810,0.002578,346.285370,350.748169,-1.000000,0.000000,0.000000
482149140.035152,0.047607,-0.018478,-1.055023,0.002608,0.010772,0.001409,0.999996,0.001437,-0.002608,-0.001409,0.999941,0.010772,0.002623,-0.010768,0.999939,0.002608,-0.010772,-0.999939,-0.032378,-0.004228,-0.055634,0.003473,-0.006610,-0.003569,346.285370,350.748169,-1.000000,0.000000,0.000000
482149140.038450,0.047607,-0.018478,-1.055023,0.002535,0.010761,0.001489,0.999996,0.001516,-0.002535,-0.001489,0.999941,0.010761,0.002551,-0.010757,0.999939,0.002535,-0.010761,-0.999939,-0.028292,-0.006298,-0.055603,-0.003974,-0.004228,0.011173,346.285370,350.748169,-1.000000,0.000000,0.000000
482149140.098342,0.110855,-0.008804,-1.059448,0.002397,0.010849,0.001519,0.999996,0.001546,-0.002397,-0.001519,0.999940,0.010849,0.002414,-0.010845,0.999938,0.002397,-0.010849,-0.999938,0.034041,0.005447,-0.063966,0.002214,0.000383,0.005053,346.285370,350.748169,-1.000000,0.000000,0.000000
482149140.111009,0.045563,-0.017395,-1.050125,0.002396,0.010901,0.001449,0.999996,0.001475,-0.002395,-0.001449,0.999940,0.010901,0.002411,-0.010897,0.999938,0.002395,-0.010901,-0.999938,0.108795,-0.009882,-0.067369,0.003478,-0.002002,-0.004793,346.285370,350.748169,-1.000000,0.000000,0.000000
482149140.119386,0.045563,-0.017395,-1.050125,0.002396,0.010901,0.001449,0.999996,0.001475,-0.002395,-0.001449,0.999940,0.010901,0.002411,-0.010897,0.999938,0.002395,-0.010901,-0.999938,0.108795,-0.009882,-0.067369,0.003478,-0.002002,-0.004793,346.285370,350.748169,-1.000000,0.000000,0.000000
482149140.129053,-0.027969,-0.004196,-1.067307,0.002295,0.010920,0.001487,0.999996,0.001512,-0.002295,-0.001487,0.999939,0.010920,0.002311,-0.010917,0.999938,0.002295,-0.010920,-0.999938,0.123559,-0.003148,-0.061387,0.000990,-0.005431,0.001345,346.285370,350.748169,-1.000000,0.000000,0.000000
482149140.138718,-0.125748,-0.023056,-1.054321,0.002295,0.010920,0.001487,0.999996,0.001512,-0.002295,-0.001487,0.999939,0.010920,0.002311,-0.010917,0.999938,0.002295,-0.010920,-0.999938,0.123559,-0.003148,-0.061387,0.000990,-0.005431,0.001345,346.285370,350.748169,-1.000000,0.000000,0.000000
482149140.148981,-0.192383,-0.008057,-1.080261,0.002270,0.010942,0.001512,0.999996,0.001537,-0.002270,-0.001512,0.999939,0.010942,0.002287,-0.010938,0.999938,0.002270,-0.010942,-0.999938,0.043293,-0.006453,-0.050188,-0.001479,-0.003128,0.002568,346.285370,350.748169,-1.000000,0.000000,0.000000
482149140.159471,-0.016098,-0.007309,-1.054504,0.002243,0.010919,0.001448,0.999996,0.001473,-0.002243,-0.001448,0.999939,0.010919,0.002259,-0.010916,0.999938,0.002243,-0.010919,-0.999938,-0.030212,0.006723,-0.067369,-0.002684,-0.002056,-0.006053,346.285370,350.748169,-1.000000,0.000000,0.000000
482149140.169856,-0.102158,-0.012650,-1.061981,0.002223,0.010869,0.001497,0.999996,0.001522,-0.002223,-0.001497,0.999940,0.010869,0.002239,-0.010866,0.999938,0.002223,-0.010869,-0.999938,-0.127971,-0.012187,-0.054383,-0.006428,-0.000812,0.007474,346.285370,350.748169,-1.000000,0.000000,0.000000
482149140.179340,-0.039642,-0.016785,-1.055649,0.002223,0.010869,0.001497,0.999996,0.001522,-0.002223,-0.001497,0.999940,0.010869,0.002239,-0.010866,0.999938,0.002223,-0.010869,-0.999938,-0.127971,-0.012187,-0.054383,-0.006428,-0.000812,0.007474,346.285370,350.748169,-1.000000,0.000000,0.000000
482149140.189378,-0.046677,-0.011719,-1.058640,0.002179,0.010924,0.001524,0.999996,0.001547,-0.002179,-0.001524,0.999939,0.010924,0.002196,-0.010921,0.999938,0.002179,-0.010924,-0.999938,-0.018277,0.003615,-0.054566,0.005916,-0.005375,0.003830,346.285370,350.748169,-1.000000,0.000000,0.000000
482149140.200446,-0.046677,-0.011719,-1.058640,0.002179,0.010924,0.001524,0.999996,0.001547,-0.002179,-0.001524,0.999939,0.010924,0.002196,-0.010921,0.999938,0.002179,-0.010924,-0.999938,-0.018277,0.003615,-0.054566,0.005916,-0.005375,0.003830,346.285370,350.748169,-1.000000,0.000000,0.000000
482149140.208760,0.050598,-0.016602,-1.063812,0.002160,0.011012,0.001585,0.999996,0.001609,-0.002160,-0.001585,0.999938,0.011012,0.002178,-0.011008,0.999937,0.002160,-0.011012,-0.999937,-0.104318,-0.001638,-0.062044,0.008376,-0.001873,0.006308,346.285370,350.748169,-1.000000,0.000000,0.000000
482149140.218889,0.064255,-0.006958,-1.065659,0.002223,0.010971,0.001551,0.999996,0.001576,-0.002223,-0.001551,0.999939,0.010971,0.002240,-0.010968,0.999937,0.002223,-0.010971,-0.999937,-0.048899,-0.000747,-0.058702,-0.001470,0.002624,0.000115,346.285370,350.748169,-1.000000,0.000000,0.000000
482149140.230641,0.151611,-0.010635,-1.068954,0.002220,0.010933,0.001582,0.999996,0.001606,-0.002220,-0.001582,0.999939,0.010933,0.002237,-0.010929,0.999938,0.002220,-0.010933,-0.999938,0.048378,-0.005669,-0.063874,-0.003941,0.002617,0.001335,346.285370,350.748169,-1.000000,0.000000,0.000000
482149140.238923,0.186371,-0.017166,-1.053040,0.002220,0.010933,0.001582,0.999996,0.001606,-0.002220,-0.001582,0.999939,0.010933,0.002237,-0.010929,0.999938,0.002220,-0.010933,-0.999938,0.048378,-0.005669,-0.063874,-0.003941,0.002617,0.001335,346.285370,350.748169,-1.000000,0.000000,0.000000
482149140.249399,0.060150,-0.001907,-1.063736,0.002136,0.010946,0.001632,0.999996,0.001656,-0.002136,-0.001632,0.999939,0.010946,0.002154,-0.010943,0.999938,0.002136,-0.010946,-0.999938,0.062119,0.003988,-0.065721,-0.001491,0.000367,0.006267,346.285370,350.748169,-1.000000,0.000000,0.000000
482149140.259445,0.085205,-0.013290,-1.062576,0.002077,0.010908,0.001657,0.999996,0.001680,-0.002077,-0.001657,0.999939,0.010908,0.002095,-0.010904,0.999938,0.002077,-0.010908,-0.999938,0.149534,0.000273,-0.069016,-0.002710,-0.007767,0.001324,346.285370,350.748169,-1.000000,0.000000,0.000000
482149140.269656,0.088135,-0.012314,-1.058640,0.002077,0.010908,0.001657,0.999996,0.001680,-0.002077,-0.001657,0.999939,0.010908,0.002095,-0.010904,0.999938,0.002077,-0.010908,-0.999938,0.149534,0.000273,-0.069016,-0.002710,-0.007767,0.001324,346.285370,350.748169,-1.000000,0.000000,0.000000
482149140.279220,0.039536,-0.011383,-1.059967,0.002044,0.010897,0.001755,0.999996,0.001777,-0.002044,-0.001755,0.999939,0.010897,0.002063,-0.010894,0.999939,0.002044,-0.010897,-0.999939,0.058106,0.008990,-0.063797,-0.000261,0.000386,0.007503,346.285370,350.748169,-1.000000,0.000000,0.000000
482149140.289472,-0.031128,0.003784,-1.070267,0.002036,0.010931,0.001768,0.999996,0.001791,-0.002036,-0.001768,0.999939,0.010931,0.002055,-0.010927,0.999938,0.002036,-0.010931,-0.999938,0.083169,-0.002360,-0.062638,0.004699,-0.003116,-0.001097,346.285370,350.748169,-1.000000,0.000000,0.000000
482149140.298908,-0.101242,-0.009705,-1.063919,0.002036,0.010931,0.001768,0.999996,0.001791,-0.002036,-0.001768,0.999939,0.010931,0.002055,-0.010927,0.999938,0.002036,-0.010931,-0.999938,0.083169,-0.002360,-0.062638,0.004699,-0.003116,-0.001097,346.285370,350.748169,-1.000000,0.000000,0.000000
482149140.309853,-0.101242,-0.009705,-1.063919,0.002065,0.010993,0.001717,0.999996,0.001740,-0.002065,-0.001717,0.999938,0.010992,0.002084,-0.010989,0.999937,0.002065,-0.010992,-0.999937,0.037470,-0.000391,-0.060030,0.003486,-0.000868,-0.007254,346.285370,350.748169,-1.000000,0.000000,0.000000
482149140.318821,-0.173508,-0.011337,-1.073273,0.002069,0.011026,0.001754,0.999996,0.001777,-0.002069,-0.001754,0.999938,0.011026,0.002088,-0.011022,0.999937,0.002069,-0.011026,-0.999937,-0.033197,0.014810,-0.070330,0.003451,-0.000774,0.003825,346.285370,350.748169,-1.000000,0.000000,0.000000
482149140.331457,-0.020950,-0.013107,-1.046692,0.002069,0.011026,0.001754,0.999996,0.001777,-0.002069,-0.001754,0.999938,0.011026,0.002088,-0.011022,0.999937,0.002069,-0.011026,-0.999937,-0.033197,0.014810,-0.070330,0.003451,-0.000774,0.003825,346.285370,350.748169,-1.000000,0.000000,0.000000
482149140.339207,-0.116943,-0.011475,-1.076782,0.002182,0.011082,0.001787,0.999996,0.001811,-0.002182,-0.001787,0.999937,0.011081,0.002202,-0.011077,0.999936,0.002182,-0.011081,-0.999936,-0.103424,0.001377,-0.063983,-0.000257,0.001531,0.006274,346.285370,350.748169,-1.000000,0.000000,0.000000
482149140.349384,-0.048447,-0.021591,-1.055710,0.002163,0.011103,0.001758,0.999996,0.001782,-0.002163,-0.001758,0.999937,0.011103,0.002183,-0.011099,0.999936,0.002163,-0.011103,-0.999936,-0.175671,-0.000234,-0.073337,0.004711,-0.001993,-0.004788,346.285370,350.748169,-1.000000,0.000000,0.000000
482149140.360990,-0.067749,0.000549,-1.066605,0.002068,0.011105,0.001748,0.999996,0.001771,-0.002068,-0.001748,0.999937,0.011104,0.002088,-0.011101,0.999936,0.002068,-0.011104,-0.999936,-0.119011,-0.000370,-0.076846,-0.001465,-0.008945,-0.002365,346.285370,350.748169,-1.000000,0.000000,0.000000
482149140.369271,0.039398,-0.008362,-1.052124,0.002068,0.011105,0.001748,0.999996,0.001771,-0.002068,-0.001748,0.999937,0.011104,0.002088,-0.011101,0.999936,0.002068,-0.011104,-0.999936,-0.119011,-0.000370,-0.076846,-0.001465,-0.008945,-0.002365,346.285370,350.748169,-1.000000,0.000000,0.000000
482149140.378620,0.069397,-0.014984,-1.065628,0.002066,0.011126,0.001743,0.999996,0.001766,-0.002066,-0.001743,0.999937,0.011126,0.002085,-0.011122,0.999936,0.002066,-0.011126,-0.999936,-0.050512,-0.010465,-0.055774,-0.001462,0.003758,-0.002345,346.285370,350.748169,-1.000000,0.000000,0.000000
482149140.391917,0.171432,-0.010040,-1.069794,0.002045,0.011188,0.001680,0.999996,0.001703,-0.002045,-0.001680,0.999936,0.011187,0.002064,-0.011184,0.999935,0.002045,-0.011187,-0.999935,0.037354,0.002826,-0.052189,0.012095,-0.000744,0.000171,346.285370,350.748169,-1.000000,0.000000,0.000000
482149140.399169,0.194382,-0.019348,-1.056900,0.002045,0.011188,0.001680,0.999996,0.001703,-0.002045,-0.001680,0.999936,0.011187,0.002064,-0.011184,0.999935,0.002045,-0.011187,-0.999935,0.037354,0.002826,-0.052189,0.012095,-0.000744,0.000171,346.285370,350.748169,-1.000000,0.000000,0.000000
482149140.409313,0.054474,-0.011734,-1.069656,0.002042,0.011203,0.001669,0.999996,0.001692,-0.002042,-0.001669,0.999936,0.011203,0.002061,-0.011200,0.999935,0.002042,-0.011203,-0.999935,0.037356,0.002841,-0.052189,-0.000237,0.001478,0.000119,346.285370,350.748169,-1.000000,0.000000,0.000000
482149140.419763,0.054474,-0.011734,-1.069656,0.002020,0.011175,0.001725,0.999996,0.001748,-0.002020,-0.001725,0.999936,0.011175,0.002040,-0.011171,0.999936,0.002020,-0.011175,-0.999936,0.169412,0.001134,-0.069858,-0.001483,0.000346,0.003804,346.285370,350.748169,-1.000000,0.000000,0.000000
482149140.431115,0.092987,-0.010361,-1.050766,0.002020,0.011175,0.001725,0.999996,0.001748,-0.002020,-0.001725,0.999936,0.011175,0.002040,-0.011171,0.999936,0.002020,-0.011175,-0.999936,0.169412,0.001134,-0.069858,-0.001483,0.000346,0.003804,346.285370,350.748169,-1.000000,0.000000,0.000000
482149140.438874,0.099167,-0.012634,-1.074249,0.001995,0.011166,0.001750,0.999996,0.001772,-0.001995,-0.001750,0.999936,0.011166,0.002015,-0.011163,0.999936,0.001995,-0.011166,-0.999936,0.192387,-0.008182,-0.056964,-0.001471,-0.000840,0.000109,346.285370,350.748169,-1.000000,0.000000,0.000000
482149140.449220,0.044540,-0.016388,-1.048172,0.001929,0.011168,0.001740,0.999997,0.001762,-0.001928,-0.001740,0.999936,0.011168,0.001948,-0.011164,0.999936,0.001928,-0.011168,-0.999936,0.091059,0.000807,-0.050830,-0.005181,-0.010084,0.002540,346.285370,350.748169,-1.000000,0.000000,0.000000
482149140.459550,-0.049881,0.002106,-1.077271,0.001929,0.011168,0.001740,0.999997,0.001762,-0.001928,-0.001740,0.999936,0.011168,0.001948,-0.011164,0.999936,0.001928,-0.011168,-0.999936,0.091059,0.000807,-0.050830,-0.005181,-0.010084,0.002540,346.285370,350.748169,-1.000000,0.000000,0.000000
482149140.469242,-0.117004,-0.019180,-1.042496,0.001909,0.011177,0.001777,0.999997,0.001799,-0.001909,-0.001777,0.999936,0.011177,0.001929,-0.011174,0.999936,0.001909,-0.011177,-0.999936,0.097258,-0.001457,-0.074314,0.000978,-0.005400,0.005037,346.285370,350.748169,-1.000000,0.000000,0.000000
482149140.479445,-0.197296,-0.009918,-1.077362,0.001937,0.011101,0.001791,0.999996,0.001813,-0.001937,-0.001791,0.999937,0.011101,0.001957,-0.011097,0.999937,0.001937,-0.011101,-0.999937,0.042603,-0.005287,-0.048235,-0.005154,0.003710,-0.004824,346.285370,350.748169,-1.000000,0.000000,0.000000
482149140.491094,-0.031662,-0.017975,-1.059509,0.001937,0.011101,0.001791,0.999996,0.001813,-0.001937,-0.001791,0.999937,0.011101,0.001957,-0.011097,0.999937,0.001937,-0.011101,-0.999937,0.042603,-0.005287,-0.048235,-0.005154,0.003710,-0.004824,346.285370,350.748169,-1.000000,0.000000,0.000000
482149140.499135,-0.042755,-0.008850,-1.064484,0.001952,0.011110,0.001847,0.999996,0.001868,-0.001952,-0.001846,0.999937,0.011110,0.001972,-0.011107,0.999936,0.001952,-0.011110,-0.999936,-0.051833,0.013216,-0.077334,0.000983,-0.001946,0.003811,346.285370,350.748169,-1.000000,0.000000,0.000000
482149140.509459,-0.067444,-0.017212,-1.049973,0.001986,0.011094,0.001861,0.999996,0.001883,-0.001986,-0.001861,0.999937,0.011094,0.002007,-0.011090,0.999937,0.001986,-0.011094,-0.999937,-0.199282,0.001175,-0.077426,-0.002722,0.006132,0.006269,346.285370,350.748169,-1.000000,0.000000,0.000000
482149140.521357,-0.077469,-0.003326,-1.082382,0.002079,0.011056,0.001910,0.999996,0.001933,-0.002078,-0.001910,0.999937,0.011055,0.002100,-0.011051,0.999937,0.002078,-0.011055,-0.999937,-0.033740,-0.006920,-0.059573,-0.002722,0.007287,0.006271,346.285370,350.748169,-1.000000,0.000000,0.000000
482149140.529333,-0.077469,-0.003326,-1.082382,0.002079,0.011056,0.001910,0.999996,0.001933,-0.002078,-0.001910,0.999937,0.011055,0.002100,-0.011051,0.999937,0.002078,-0.011055,-0.999937,-0.033740,-0.006920,-0.059573,-0.002722,0.007287,0.006271,346.285370,350.748169,-1.000000,0.000000,0.000000
482149140.539204,0.043396,-0.012344,-1.041336,0.002063,0.011111,0.001924,0.999996,0.001947,-0.002063,-0.001924,0.999936,0.011111,0.002084,-0.011107,0.999936,0.002063,-0.011111,-0.999936,-0.069506,-0.006101,-0.050036,-0.000237,0.001478,0.000118,346.285370,350.748169,-1.000000,0.000000,0.000000
482149140.549479,0.076279,-0.009232,-1.076370,0.002071,0.011103,0.001937,0.999996,0.001960,-0.002071,-0.001937,0.999936,0.011102,0.002093,-0.011098,0.999936,0.002071,-0.011102,-0.999936,-0.079540,0.007776,-0.082446,0.000991,-0.001967,0.001349,346.285370,350.748169,-1.000000,0.000000,0.000000
482149140.559639,0.169342,-0.008942,-1.057068,0.002071,0.011103,0.001937,0.999996,0.001960,-0.002071,-0.001937,0.999936,0.011102,0.002093,-0.011098,0.999936,0.002071,-0.011102,-0.999936,-0.079540,0.007776,-0.082446,0.000991,-0.001967,0.001349,346.285370,350.748169,-1.000000,0.000000,0.000000
482149140.570140,0.168427,-0.011887,-1.058060,0.002151,0.011092,0.001838,0.999996,0.001862,-0.002151,-0.001838,0.999937,0.011092,0.002171,-0.011088,0.999936,0.002151,-0.011092,-0.999936,0.041245,-0.001253,-0.041400,-0.000225,0.003756,-0.003571,346.285370,350.748169,-1.000000,0.000000,0.000000
482149140.579446,0.060455,-0.014786,-1.061798,0.002176,0.011096,0.001899,0.999996,0.001923,-0.002176,-0.001899,0.999937,0.011095,0.002197,-0.011091,0.999936,0.002176,-0.011095,-0.999936,0.074102,0.001864,-0.076434,-0.000261,0.001541,0.007504,346.285370,350.748169,-1.000000,0.000000,0.000000
482149140.589562,0.107895,-0.003922,-1.078079,0.002176,0.011096,0.001899,0.999996,0.001923,-0.002176,-0.001899,0.999937,0.011095,0.002197,-0.011091,0.999936,0.002176,-0.011095,-0.999936,0.074102,0.001864,-0.076434,-0.000261,0.001541,0.007504,346.285370,350.748169,-1.000000,0.000000,0.000000
482149140.599378,0.109879,-0.008835,-1.064346,0.002221,0.011013,0.001901,0.999996,0.001926,-0.002221,-0.001901,0.999938,0.011013,0.002242,-0.011009,0.999937,0.002221,-0.011013,-0.999937,0.166205,-0.000874,-0.058123,-0.002696,-0.000870,-0.002359,346.285370,350.748169,-1.000000,0.000000,0.000000
482149140.609396,0.027664,-0.014084,-1.050247,0.002203,0.011071,0.001878,0.999996,0.001903,-0.002202,-0.001878,0.999937,0.011071,0.002223,-0.011066,0.999936,0.002202,-0.011071,-0.999936,0.058253,-0.003715,-0.061862,0.005920,-0.005386,0.002598,346.285370,350.748169,-1.000000,0.000000,0.000000
482149140.618610,0.027664,-0.014084,-1.050247,0.002203,0.011071,0.001878,0.999996,0.001903,-0.002202,-0.001878,0.999937,0.011071,0.002223,-0.011066,0.999936,0.002202,-0.011071,-0.999936,0.058253,-0.003715,-0.061862,0.005920,-0.005386,0.002598,346.285370,350.748169,-1.000000,0.000000,0.000000
482149140.628891,-0.072525,0.000473,-1.091141,0.002226,0.011120,0.001857,0.999996,0.001882,-0.002226,-0.001857,0.999936,0.011120,0.002247,-0.011116,0.999936,0.002226,-0.011120,-0.999936,0.107653,0.002285,-0.064411,0.002237,-0.000835,-0.002337,346.285370,350.748169,-1.000000,0.000000,0.000000
482149140.639662,-0.122940,-0.019089,-1.047424,0.002246,0.011153,0.001883,0.999996,0.001908,-0.002246,-0.001883,0.999936,0.011153,0.002267,-0.011149,0.999935,0.002246,-0.011153,-0.999935,0.107633,0.002318,-0.064411,0.000918,0.003796,0.003930,0.000000,0.000000,-1.000000,0.000000,0.000000
482149140.649416,-0.200424,-0.005829,-1.069550,0.002246,0.011153,0.001883,0.999996,0.001908,-0.002246,-0.001883,0.999936,0.011153,0.002267,-0.011149,0.999935,0.002246,-0.011153,-0.999935,0.107633,0.002318,-0.064411,0.000918,0.003796,0.003930,0.000000,0.000000,-1.000000,0.000000,0.000000
482149140.659203,-0.056595,-0.011536,-1.062637,0.002235,0.011183,0.001942,0.999996,0.001967,-0.002235,-0.001941,0.999936,0.011183,0.002257,-0.011179,0.999935,0.002235,-0.011183,-0.999935,-0.074760,0.011656,-0.091206,0.000912,-0.004277,0.005149,346.572937,351.035736,-1.000000,0.000000,0.000000
482149140.669466,-0.055527,-0.009659,-1.076324,0.002271,0.011156,0.002034,0.999995,0.002059,-0.002271,-0.002033,0.999936,0.011156,0.002294,-0.011151,0.999935,0.002271,-0.011156,-0.999935,-0.125211,-0.007933,-0.047489,-0.004035,0.003813,0.010063,346.572937,351.035736,-1.000000,0.000000,0.000000
482149140.680615,-0.048660,-0.007782,-1.072372,0.002271,0.011156,0.002034,0.999995,0.002059,-0.002271,-0.002033,0.999936,0.011156,0.002294,-0.011151,0.999935,0.002271,-0.011156,-0.999935,-0.125211,-0.007933,-0.047489,-0.004035,0.003813,0.010063,346.572937,351.035736,-1.000000,0.000000,0.000000
482149140.689280,-0.044952,-0.000839,-1.059586,0.002259,0.011120,0.002092,0.999995,0.002117,-0.002259,-0.002092,0.999936,0.011120,0.002283,-0.011115,0.999936,0.002259,-0.011120,-0.999936,-0.058854,-0.000416,-0.062702,-0.000309,-0.006627,0.001446,346.572937,351.035736,-1.000000,0.000000,0.000000
482149140.699714,0.056427,-0.011734,-1.063766,0.002279,0.011147,0.002064,0.999995,0.002090,-0.002279,-0.002064,0.999936,0.011147,0.002302,-0.011142,0.999935,0.002279,-0.011147,-0.999935,-0.057806,0.001488,-0.076389,0.004638,0.003770,-0.002208,346.572937,351.035736,-1.000000,0.000000,0.000000
482149140.710404,0.078232,-0.010208,-1.067535,0.002302,0.011207,0.002165,0.999995,0.002190,-0.002302,-0.002164,0.999935,0.011207,0.002326,-0.011202,0.999935,0.002302,-0.011207,-0.999935,-0.047254,0.010368,-0.059651,0.009538,-0.003040,0.007651,346.574158,351.036957,-1.000000,0.000000,0.000000
482149140.720054,0.078232,-0.010208,-1.067535,0.002302,0.011207,0.002165,0.999995,0.002190,-0.002302,-0.002164,0.999935,0.011207,0.002326,-0.011202,0.999935,0.002302,-0.011207,-0.999935,-0.047254,0.010368,-0.059651,0.009538,-0.003040,0.007651,346.574158,351.036957,-1.000000,0.000000,0.000000
482149140.728886,0.162369,-0.005875,-1.064941,0.002260,0.011180,0.002185,0.999995,0.002210,-0.002260,-0.002184,0.999935,0.011180,0.002284,-0.011175,0.999935,0.002260,-0.011180,-0.999935,-0.047212,0.010341,-0.059651,-0.004010,-0.006653,0.001429,346.574158,351.036957,-1.000000,0.000000,0.000000
482149140.740681,0.202194,-0.014511,-1.057831,0.002192,0.011156,0.002207,0.999995,0.002231,-0.002192,-0.002207,0.999935,0.011156,0.002217,-0.011151,0.999935,0.002192,-0.011156,-0.999935,0.076040,0.000948,-0.067600,-0.001537,-0.000872,0.000218,346.574158,351.036957,-1.000000,0.000000,0.000000
482149140.749590,0.060257,-0.003952,-1.071579,0.002192,0.011156,0.002207,0.999995,0.002231,-0.002192,-0.002207,0.999935,0.011156,0.002217,-0.011151,0.999935,0.002192,-0.011156,-0.999935,0.076040,0.000948,-0.067600,-0.001537,-0.000872,0.000218,346.574158,351.036957,-1.000000,0.000000,0.000000
482149140.759065,0.132767,-0.014160,-1.056351,0.002201,0.011196,0.002191,0.999995,0.002216,-0.002201,-0.002191,0.999935,0.011195,0.002225,-0.011190,0.999935,0.002201,-0.011195,-0.999935,0.160168,0.005321,-0.065006,0.003400,-0.002002,-0.000992,346.571838,351.034637,-1.000000,0.000000,0.000000
482149140.769459,0.119049,-0.015030,-1.076065,0.002218,0.011208,0.002172,0.999995,0.002196,-0.002218,-0.002171,0.999935,0.011207,0.002242,-0.011203,0.999935,0.002218,-0.011207,-0.999935,0.058039,0.007255,-0.071644,0.004658,0.001408,-0.008367,346.571838,351.034637,-1.000000,0.000000,0.000000
482149140.779358,0.029572,-0.012131,-1.050232,0.002218,0.011208,0.002172,0.999995,0.002196,-0.002218,-0.002171,0.999935,0.011207,0.002242,-0.011203,0.999935,0.002218,-0.011207,-0.999935,0.058039,0.007255,-0.071644,0.004658,0.001408,-0.008367,346.571838,351.034637,-1.000000,0.000000,0.000000
482149140.789397,-0.071671,0.002502,-1.080368,0.002249,0.011181,0.002096,0.999995,0.002121,-0.002249,-0.002096,0.999935,0.011181,0.002272,-0.011176,0.999935,0.002249,-0.011181,-0.999935,0.130518,-0.002980,-0.056416,-0.002758,0.001397,-0.003477,346.571838,351.034637,-1.000000,0.000000,0.000000
482149140.799435,-0.129028,-0.012054,-1.052368,0.002300,0.011253,0.002149,0.999995,0.002174,-0.002300,-0.002148,0.999934,0.011253,0.002324,-0.011248,0.999934,0.002300,-0.011253,-0.999934,0.116749,-0.003777,-0.076131,0.009543,0.000414,0.006426,346.571838,351.034637,-1.000000,0.000000,0.000000
482149140.810605,-0.186432,-0.012039,-1.065521,0.002300,0.011253,0.002149,0.999995,0.002174,-0.002300,-0.002148,0.999934,0.011253,0.002324,-0.011248,0.999934,0.002300,-0.011253,-0.999934,0.116749,-0.003777,-0.076131,0.009543,0.000414,0.006426,346.571838,351.034637,-1.000000,0.000000,0.000000
482149140.819486,-0.032715,-0.014008,-1.066376,0.002258,0.011268,0.002145,0.999995,0.002170,-0.002258,-0.002145,0.999934,0.011268,0.002282,-0.011263,0.999934,0.002258,-0.011268,-0.999934,0.027314,-0.000863,-0.050298,-0.001526,-0.000903,-0.003475,346.571594,351.034393,-1.000000,0.000000,0.000000
482149140.830100,-0.032715,-0.014008,-1.066376,0.002141,0.011370,0.002179,0.999995,0.002203,-0.002140,-0.002179,0.999933,0.011370,0.002165,-0.011365,0.999933,0.002140,-0.011370,-0.999933,-0.131169,-0.000685,-0.052435,0.003390,-0.007755,0.001461,346.571594,351.034393,-1.000000,0.000000,0.000000
482149140.839229,-0.036865,-0.011826,-1.047791,0.002141,0.011370,0.002179,0.999995,0.002203,-0.002140,-0.002179,0.999933,0.011370,0.002165,-0.011365,0.999933,0.002140,-0.011370,-0.999933,-0.131169,-0.000685,-0.052435,0.003390,-0.007755,0.001461,346.571594,351.034393,-1.000000,0.000000,0.000000
482149140.849236,-0.043732,-0.008850,-1.068420,0.002104,0.011373,0.002223,0.999995,0.002247,-0.002104,-0.002223,0.999933,0.011373,0.002129,-0.011368,0.999933,0.002104,-0.011373,-0.999933,-0.188536,-0.000667,-0.065588,0.002146,-0.004268,0.005154,346.571594,351.034393,-1.000000,0.000000,0.000000
482149140.859107,-0.043732,-0.003998,-1.085068,0.002143,0.011379,0.002234,0.999995,0.002258,-0.002143,-0.002233,0.999933,0.011379,0.002169,-0.011374,0.999933,0.002143,-0.011379,-0.999933,-0.039008,-0.000447,-0.047858,-0.000298,0.007209,-0.000995,346.571594,351.034393,-1.000000,0.000000,0.000000
482149140.870394,0.046432,-0.008560,-1.062851,0.002143,0.011379,0.002234,0.999995,0.002258,-0.002143,-0.002233,0.999933,0.011379,0.002169,-0.011374,0.999933,0.002143,-0.011379,-0.999933,-0.039008,-0.000447,-0.047858,-0.000298,0.007209,-0.000995,346.568451,351.031250,-1.000000,0.000000,0.000000
482149140.879411,0.063126,-0.005829,-1.050964,0.002208,0.011358,0.002206,0.999995,0.002231,-0.002208,-0.002206,0.999933,0.011358,0.002233,-0.011353,0.999933,0.002208,-0.011358,-0.999933,-0.045939,0.002508,-0.068487,-0.007701,0.008322,0.000205,346.568451,351.031250,-1.000000,0.000000,0.000000
482149140.888923,0.142593,-0.007477,-1.067062,0.002264,0.011406,0.002252,0.999995,0.002278,-0.002264,-0.002252,0.999932,0.011406,0.002290,-0.011401,0.999932,0.002264,-0.011406,-0.999932,-0.045996,0.007408,-0.085135,0.007084,-0.000780,0.003950,346.568451,351.031250,-1.000000,0.000000,0.000000
482149140.899812,0.172592,-0.021881,-1.053146,0.002234,0.011415,0.002237,0.999995,0.002262,-0.002233,-0.002237,0.999932,0.011415,0.002259,-0.011410,0.999932,0.002233,-0.011415,-0.999932,0.044199,0.002855,-0.062919,0.002170,-0.004331,-0.002233,346.568451,351.031250,-1.000000,0.000000,0.000000
482149140.909359,0.050278,-0.001755,-1.069672,0.002234,0.011415,0.002237,0.999995,0.002262,-0.002233,-0.002237,0.999932,0.011415,0.002259,-0.011410,0.999932,0.002233,-0.011415,-0.999932,0.044199,0.002855,-0.062919,0.002170,-0.004331,-0.002233,346.568451,351.031250,-1.000000,0.000000,0.000000
482149140.919406,0.155746,-0.015717,-1.073853,0.002222,0.011421,0.002301,0.999995,0.002326,-0.002222,-0.002301,0.999932,0.011421,0.002249,-0.011416,0.999932,0.002222,-0.011421,-0.999932,0.140371,0.003944,-0.067130,-0.002791,-0.003138,0.006364,346.564606,351.027405,-1.000000,0.000000,0.000000
482149140.930442,0.110046,-0.010910,-1.080048,0.002175,0.011424,0.002303,0.999995,0.002328,-0.002174,-0.002303,0.999932,0.011424,0.002201,-0.011419,0.999932,0.002174,-0.011424,-0.999932,0.170418,-0.010457,-0.053214,0.004633,-0.001994,-0.000987,346.564606,351.027405,-1.000000,0.000000,0.000000
482149140.938544,0.110046,-0.010910,-1.080048,0.002175,0.011424,0.002303,0.999995,0.002328,-0.002174,-0.002303,0.999932,0.011424,0.002201,-0.011419,0.999932,0.002174,-0.011424,-0.999932,0.170418,-0.010457,-0.053214,0.004633,-0.001994,-0.000987,346.564606,351.027405,-1.000000,0.000000,0.000000
482149140.948738,0.031433,-0.010117,-1.039459,0.002192,0.011412,0.002254,0.999995,0.002279,-0.002191,-0.002253,0.999932,0.011412,0.002217,-0.011407,0.999932,0.002191,-0.011412,-0.999932,0.153555,-0.004304,-0.073920,-0.001533,0.001427,-0.001010,346.564606,351.027405,-1.000000,0.000000,0.000000
482149140.967756,-0.136856,-0.013947,-1.060272,0.002116,0.011427,0.002226,0.999995,0.002250,-0.002116,-0.002226,0.999932,0.011427,0.002141,-0.011422,0.999932,0.002116,-0.011427,-0.999932,0.107931,0.000517,-0.080115,0.000935,-0.008959,-0.002246,346.564606,351.027405,-1.000000,0.000000,0.000000
482149140.979512,-0.223251,-0.009262,-1.055023,0.002049,0.011451,0.002254,0.999995,0.002278,-0.002049,-0.002254,0.999932,0.011451,0.002075,-0.011447,0.999932,0.002049,-0.011451,-0.999932,0.029385,0.001335,-0.039527,0.000916,-0.004288,0.003917,346.562408,351.025208,-1.000000,0.000000,0.000000
482149140.989445,-0.057465,-0.014542,-1.066544,0.002046,0.011520,0.002274,0.999995,0.002298,-0.002046,-0.002274,0.999931,0.011520,0.002073,-0.011516,0.999932,0.002046,-0.011520,-0.999932,-0.075792,0.012207,-0.062813,0.009551,0.001547,0.003965,346.562408,351.025208,-1.000000,0.000000,0.000000
482149140.999215,-0.027710,-0.016083,-1.063385,0.002046,0.011520,0.002274,0.999995,0.002298,-0.002046,-0.002274,0.999931,0.011520,0.002073,-0.011516,0.999932,0.002046,-0.011520,-0.999932,-0.075792,0.012207,-0.062813,0.009551,0.001547,0.003965,346.562408,351.025208,-1.000000,0.000000,0.000000
482149141.009264,-0.086273,-0.012009,-1.067749,0.002024,0.011526,0.002369,0.999995,0.002392,-0.002024,-0.002368,0.999931,0.011526,0.002051,-0.011521,0.999932,0.002024,-0.011526,-0.999932,-0.225275,0.002264,-0.055092,0.002143,0.001516,0.006393,346.562408,351.025208,-1.000000,0.000000,0.000000
482149141.019326,-0.023834,-0.013153,-1.059448,0.002026,0.011541,0.002467,0.999995,0.002490,-0.002026,-0.002466,0.999930,0.011541,0.002055,-0.011536,0.999931,0.002026,-0.011541,-0.999931,-0.059491,-0.003001,-0.066612,0.000905,-0.001947,0.007613,346.562408,351.025208,-1.000000,0.000000,0.000000
482149141.029001,0.048508,-0.010651,-1.069702,0.002026,0.011541,0.002467,0.999995,0.002490,-0.002026,-0.002466,0.999930,0.011541,0.002055,-0.011536,0.999931,0.002026,-0.011541,-0.999931,-0.059491,-0.003001,-0.066612,0.000905,-0.001947,0.007613,346.559265,351.022064,-1.000000,0.000000,0.000000
482149141.040064,0.061188,-0.005829,-1.056854,0.001976,0.011553,0.002501,0.999995,0.002524,-0.001976,-0.002501,0.999930,0.011553,0.002005,-0.011548,0.999931,0.001976,-0.011553,-0.999931,-0.088249,-0.000456,-0.067818,-0.001544,-0.007790,0.001437,346.559265,351.022064,-1.000000,0.000000,0.000000
482149141.048555,0.061188,-0.005829,-1.056854,0.001962,0.011568,0.002521,0.999995,0.002544,-0.001962,-0.002521,0.999930,0.011568,0.001991,-0.011563,0.999931,0.001962,-0.011568,-0.999931,-0.025796,-0.001585,-0.059517,0.002146,-0.001959,0.005157,346.559265,351.022064,-1.000000,0.000000,0.000000
482149141.060956,0.134598,-0.006287,-1.059265,0.001962,0.011568,0.002521,0.999995,0.002544,-0.001962,-0.002521,0.999930,0.011568,0.001991,-0.011563,0.999931,0.001962,-0.011568,-0.999931,-0.025796,-0.001585,-0.059517,0.002146,-0.001959,0.005157,346.559265,351.022064,-1.000000,0.000000,0.000000
482149141.069936,0.151855,-0.021561,-1.067001,0.001973,0.011574,0.002549,0.999995,0.002572,-0.001973,-0.002549,0.999930,0.011574,0.002003,-0.011569,0.999931,0.001973,-0.011574,-0.999931,0.046535,0.000924,-0.069771,-0.001538,-0.002027,0.000216,346.549438,351.012238,-1.000000,0.000000,0.000000
482149141.078982,0.062195,-0.003952,-1.065674,0.001965,0.011607,0.002600,0.999995,0.002622,-0.001965,-0.002599,0.999929,0.011607,0.001995,-0.011602,0.999931,0.001965,-0.011607,-0.999931,0.059223,0.005778,-0.056924,0.004625,-0.001973,0.001475,346.549438,351.012238,-1.000000,0.000000,0.000000
482149141.089656,0.151703,-0.013611,-1.069946,0.001897,0.011560,0.002604,0.999995,0.002626,-0.001897,-0.002604,0.999930,0.011559,0.001927,-0.011554,0.999931,0.001897,-0.011559,-0.999931,0.149958,-0.010001,-0.067070,-0.004012,0.000286,0.002670,346.549438,351.012238,-1.000000,0.000000,0.000000
482149141.099406,0.117828,-0.010895,-1.055496,0.001897,0.011560,0.002604,0.999995,0.002626,-0.001897,-0.002604,0.999930,0.011559,0.001927,-0.011554,0.999931,0.001897,-0.011559,-0.999931,0.149958,-0.010001,-0.067070,-0.004012,0.000286,0.002670,346.549438,351.012238,-1.000000,0.000000,0.000000
482149141.109383,0.111084,-0.015808,-1.067307,0.001894,0.011581,0.002618,0.999995,0.002640,-0.001894,-0.002618,0.999930,0.011580,0.001925,-0.011575,0.999931,0.001894,-0.011580,-0.999931,0.060301,0.007628,-0.065743,0.003388,0.000338,0.002704,346.549438,351.012238,-1.000000,0.000000,0.000000
482149141.119740,-0.079514,-0.005188,-1.068665,0.001895,0.011635,0.002575,0.999995,0.002597,-0.001895,-0.002574,0.999929,0.011634,0.001925,-0.011630,0.999931,0.001895,-0.011634,-0.999931,0.115934,0.000740,-0.055566,-0.000299,0.002590,-0.001003,346.549438,351.012238,-1.000000,0.000000,0.000000
482149141.129368,-0.126923,-0.016098,-1.056274,0.001895,0.011635,0.002575,0.999995,0.002597,-0.001895,-0.002574,0.999929,0.011634,0.001925,-0.011630,0.999931,0.001895,-0.011634,-0.999931,0.115934,0.000740,-0.055566,-0.000299,0.002590,-0.001003,346.541931,351.004730,-1.000000,0.000000,0.000000
482149141.139184,-0.220245,-0.006424,-1.069687,0.001932,0.011680,0.002577,0.999995,0.002600,-0.001932,-0.002577,0.999928,0.011679,0.001962,-0.011674,0.999930,0.001932,-0.011679,-0.999930,0.115897,0.000785,-0.055566,0.005872,0.004933,-0.002202,346.541931,351.004730,-1.000000,0.000000,0.000000
482149141.148473,-0.220245,-0.006424,-1.069687,0.001932,0.011728,0.002629,0.999995,0.002652,-0.001932,-0.002629,0.999928,0.011727,0.001963,-0.011722,0.999929,0.001932,-0.011727,-0.999929,-0.081445,0.006539,-0.068735,0.008301,0.000425,0.008881,346.541931,351.004730,-1.000000,0.000000,0.000000
482149141.159128,-0.059570,-0.010498,-1.063614,0.001932,0.011728,0.002629,0.999995,0.002652,-0.001932,-0.002629,0.999928,0.011727,0.001963,-0.011722,0.999929,0.001932,-0.011727,-0.999929,-0.081445,0.006539,-0.068735,0.008301,0.000425,0.008881,346.541931,351.004730,-1.000000,0.000000,0.000000
482149141.170635,-0.061493,-0.012451,-1.063629,0.001923,0.011701,0.002649,0.999995,0.002672,-0.001923,-0.002649,0.999928,0.011701,0.001954,-0.011695,0.999930,0.001923,-0.011701,-0.999930,-0.128846,-0.004398,-0.056345,-0.006479,-0.002042,0.002655,346.541931,351.004730,-1.000000,0.000000,0.000000
482149141.179267,-0.112213,-0.006500,-1.064987,0.001884,0.011701,0.002558,0.999995,0.002580,-0.001884,-0.002558,0.999928,0.011701,0.001914,-0.011696,0.999930,0.001884,-0.011701,-0.999930,-0.061455,0.001203,-0.063684,0.007111,-0.004318,-0.004673,346.539612,351.002411,-1.000000,0.000000,0.000000
482149141.189172,-0.036636,-0.016891,-1.061508,0.001884,0.011701,0.002558,0.999995,0.002580,-0.001884,-0.002558,0.999928,0.011701,0.001914,-0.011696,0.999930,0.001884,-0.011701,-0.999930,-0.061455,0.001203,-0.063684,0.007111,-0.004318,-0.004673,346.539612,351.002411,-1.000000,0.000000,0.000000
482149141.199176,-0.017151,0.000534,-1.072128,0.001854,0.011692,0.002518,0.999995,0.002540,-0.001853,-0.002518,0.999928,0.011692,0.001883,-0.011687,0.999930,0.001853,-0.011692,-0.999930,-0.063346,-0.000759,-0.063699,-0.000294,-0.006669,-0.003480,346.539612,351.002411,-1.000000,0.000000,0.000000
482149141.209448,0.071991,-0.002075,-1.053848,0.001854,0.011698,0.002487,0.999995,0.002508,-0.001854,-0.002487,0.999928,0.011698,0.001883,-0.011693,0.999930,0.001854,-0.011698,-0.999930,-0.038490,-0.005194,-0.061578,-0.000300,0.001435,-0.001005,346.539612,351.002411,-1.000000,0.000000,0.000000
482149141.220411,0.153458,-0.005722,-1.066986,0.001854,0.011698,0.002487,0.999995,0.002508,-0.001854,-0.002487,0.999928,0.011698,0.001883,-0.011693,0.999930,0.001854,-0.011698,-0.999930,-0.038490,-0.005194,-0.061578,-0.000300,0.001435,-0.001005,346.539612,351.002411,-1.000000,0.000000,0.000000
482149141.229372,0.152756,-0.018585,-1.062088,0.001817,0.011671,0.002543,0.999995,0.002564,-0.001817,-0.002542,0.999929,0.011671,0.001847,-0.011666,0.999930,0.001817,-0.011671,-0.999930,-0.038453,-0.005221,-0.061578,-0.001560,-0.007749,0.006361,346.539307,351.002106,-1.000000,0.000000,0.000000
482149141.239368,0.054291,-0.006714,-1.059845,0.001790,0.011725,0.002481,0.999995,0.002502,-0.001789,-0.002481,0.999928,0.011725,0.001819,-0.011721,0.999930,0.001789,-0.011725,-0.999930,0.070202,0.009650,-0.053919,-0.000292,0.000260,-0.003469,346.539307,351.002106,-1.000000,0.000000,0.000000
482149141.250900,0.158630,-0.015701,-1.063034,0.001804,0.011758,0.002525,0.999995,0.002547,-0.001804,-0.002525,0.999928,0.011758,0.001833,-0.011753,0.999929,0.001804,-0.011758,-0.999929,0.151654,0.006036,-0.067057,0.005847,0.000376,0.005177,346.539307,351.002106,-1.000000,0.000000,0.000000
482149141.259788,0.158630,-0.015701,-1.063034,0.001804,0.011758,0.002525,0.999995,0.002547,-0.001804,-0.002525,0.999928,0.011758,0.001833,-0.011753,0.999929,0.001804,-0.011758,-0.999929,0.151654,0.006036,-0.067057,0.005847,0.000376,0.005177,346.539307,351.002106,-1.000000,0.000000,0.000000
482149141.268885,0.133728,-0.009323,-1.069077,0.001815,0.011812,0.002578,0.999995,0.002599,-0.001815,-0.002578,0.999927,0.011812,0.001846,-0.011807,0.999929,0.001815,-0.011812,-0.999929,0.052476,0.005098,-0.059916,-0.001557,0.001489,0.006376,346.539307,351.002106,-1.000000,0.000000,0.000000
482149141.279282,0.118958,-0.011032,-1.074112,0.001784,0.011815,0.002604,0.999995,0.002625,-0.001784,-0.002604,0.999927,0.011815,0.001815,-0.011810,0.999929,0.001784,-0.011815,-0.999929,0.156846,-0.003886,-0.063105,-0.000301,-0.003184,-0.001013,346.539307,351.002106,-1.000000,0.000000,0.000000
482149141.291440,0.030624,-0.015106,-1.048279,0.001784,0.011815,0.002604,0.999995,0.002625,-0.001784,-0.002604,0.999927,0.011815,0.001815,-0.011810,0.999929,0.001784,-0.011815,-0.999929,0.156846,-0.003886,-0.063105,-0.000301,-0.003184,-0.001013,346.540283,351.003082,-1.000000,0.000000,0.000000
482149141.298769,-0.081177,-0.016113,-1.072617,0.001740,0.011845,0.002620,0.999995,0.002641,-0.001739,-0.002620,0.999926,0.011845,0.001771,-0.011840,0.999928,0.001739,-0.011845,-0.999928,0.131989,0.002522,-0.069148,-0.000282,0.007167,-0.005920,346.540283,351.003082,-1.000000,0.000000,0.000000
482149141.309392,-0.217209,-0.010406,-1.061829,0.001737,0.011795,0.002569,0.999995,0.002589,-0.001736,-0.002568,0.999927,0.011794,0.001767,-0.011790,0.999929,0.001736,-0.011794,-0.999929,0.117221,0.000762,-0.074183,-0.002748,-0.005563,-0.007182,346.540283,351.003082,-1.000000,0.000000,0.000000
482149141.319376,-0.041794,-0.011749,-1.050751,0.001737,0.011795,0.002569,0.999995,0.002589,-0.001736,-0.002568,0.999927,0.011794,0.001767,-0.011790,0.999929,0.001736,-0.011794,-0.999929,0.117221,0.000762,-0.074183,-0.002748,-0.005563,-0.007182,346.540283,351.003082,-1.000000,0.000000,0.000000
482149141.329241,-0.046631,-0.013702,-1.059616,0.001647,0.011795,0.002537,0.999995,0.002556,-0.001647,-0.002537,0.999927,0.011794,0.001677,-0.011790,0.999929,0.001647,-0.011794,-0.999929,-0.082824,-0.004319,-0.072687,0.000923,-0.006618,0.001450,346.540283,351.003082,-1.000000,0.000000,0.000000
482149141.339480,-0.087250,-0.013931,-1.062851,0.001667,0.011846,0.002527,0.999995,0.002547,-0.001667,-0.002527,0.999927,0.011845,0.001697,-0.011841,0.999928,0.001667,-0.011845,-0.999928,-0.218876,0.001439,-0.061900,0.008345,0.001465,-0.004659,346.544647,351.007446,-1.000000,0.000000,0.000000
482149141.349232,-0.039444,-0.021835,-1.066422,0.001667,0.011846,0.002527,0.999995,0.002547,-0.001667,-0.002527,0.999927,0.011845,0.001697,-0.011841,0.999928,0.001667,-0.011845,-0.999928,-0.218876,0.001439,-0.061900,0.008345,0.001465,-0.004659,346.544647,351.007446,-1.000000,0.000000,0.000000
482149141.359156,-0.039749,-0.004059,-1.084061,0.001655,0.011816,0.002585,0.999995,0.002605,-0.001655,-0.002585,0.999927,0.011815,0.001686,-0.011811,0.999929,0.001655,-0.011815,-0.999929,-0.048286,-0.001887,-0.059687,-0.002786,0.002625,0.005141,346.544647,351.007446,-1.000000,0.000000,0.000000
482149141.369664,-0.039749,-0.004059,-1.084061,0.001652,0.011777,0.002659,0.999995,0.002679,-0.001652,-0.002659,0.999927,0.011776,0.001683,-0.011772,0.999929,0.001652,-0.011776,-0.999929,-0.088902,-0.002155,-0.062922,-0.000336,0.000374,0.010072,346.544647,351.007446,-1.000000,0.000000,0.000000
482149141.381448,0.046249,-0.002579,-1.056961,0.001652,0.011777,0.002659,0.999995,0.002679,-0.001652,-0.002659,0.999927,0.011776,0.001683,-0.011772,0.999929,0.001652,-0.011776,-0.999929,-0.088902,-0.002155,-0.062922,-0.000336,0.000374,0.010072,346.544647,351.007446,-1.000000,0.000000,0.000000
482149141.389239,0.116653,-0.003922,-1.053528,0.001714,0.011765,0.002664,0.999995,0.002684,-0.001714,-0.002664,0.999927,0.011764,0.001745,-0.011760,0.999929,0.001714,-0.011764,-0.999929,-0.041158,-0.010071,-0.066492,0.002179,0.000266,-0.004689,346.548828,351.011627,-1.000000,0.000000,0.000000
482149141.399424,0.139694,-0.010391,-1.067093,0.001717,0.011816,0.002696,0.999995,0.002716,-0.001717,-0.002696,0.999927,0.011815,0.001749,-0.011811,0.999929,0.001717,-0.011815,-0.999929,-0.041466,0.007757,-0.084132,0.004620,-0.001963,0.002705,346.548828,351.011627,-1.000000,0.000000,0.000000
482149141.409689,0.022461,-0.001175,-1.063995,0.001694,0.011786,0.002874,0.999994,0.002894,-0.001694,-0.002874,0.999926,0.011785,0.001727,-0.011780,0.999929,0.001694,-0.011785,-0.999929,0.114960,0.007864,-0.053599,0.002131,0.002701,0.010087,346.548828,351.011627,-1.000000,0.000000,0.000000
482149141.419320,0.159790,-0.018799,-1.074783,0.001694,0.011786,0.002874,0.999994,0.002894,-0.001694,-0.002874,0.999926,0.011785,0.001727,-0.011780,0.999929,0.001694,-0.011785,-0.999929,0.114960,0.007864,-0.053599,0.002131,0.002701,0.010087,346.548828,351.011627,-1.000000,0.000000,0.000000
482149141.429345,0.131531,-0.005188,-1.051453,0.001674,0.011801,0.002894,0.999994,0.002914,-0.001674,-0.002894,0.999926,0.011800,0.001708,-0.011795,0.999929,0.001674,-0.011800,-0.999929,0.138020,0.001409,-0.067164,0.000933,-0.000866,-0.001004,346.548828,351.011627,-1.000000,0.000000,0.000000
482149141.439518,0.119888,-0.008118,-1.077988,0.001635,0.011825,0.002892,0.999994,0.002912,-0.001635,-0.002892,0.999926,0.011824,0.001669,-0.011820,0.999929,0.001635,-0.011824,-0.999929,0.158155,-0.006974,-0.074855,0.003426,-0.006695,-0.009618,346.550446,351.013245,-1.000000,0.000000,0.000000
482149141.448993,0.041458,-0.015259,-1.040375,0.001635,0.011825,0.002892,0.999994,0.002912,-0.001635,-0.002892,0.999926,0.011824,0.001669,-0.011820,0.999929,0.001635,-0.011824,-0.999929,0.158155,-0.006974,-0.074855,0.003426,-0.006695,-0.009618,346.550446,351.013245,-1.000000,0.000000,0.000000
482149141.460466,-0.165482,-0.017410,-1.064392,0.001627,0.011828,0.002907,0.999994,0.002926,-0.001626,-0.002906,0.999926,0.011827,0.001661,-0.011823,0.999929,0.001626,-0.011827,-0.999929,0.158164,-0.006971,-0.074855,-0.000324,0.002652,0.006383,346.550446,351.013245,-1.000000,0.000000,0.000000
482149141.469987,-0.213501,-0.002502,-1.053940,0.001605,0.011924,0.002989,0.999994,0.003008,-0.001604,-0.002989,0.999924,0.011923,0.001640,-0.011918,0.999928,0.001604,-0.011923,-0.999928,0.118284,0.003806,-0.078060,0.007099,-0.000822,-0.000975,346.550446,351.013245,-1.000000,0.000000,0.000000
482149141.479296,-0.213501,-0.002502,-1.053940,0.001605,0.011924,0.002989,0.999994,0.003008,-0.001604,-0.002989,0.999924,0.011923,0.001640,-0.011918,0.999928,0.001604,-0.011923,-0.999928,0.118284,0.003806,-0.078060,0.007099,-0.000822,-0.000975,346.550446,351.013245,-1.000000,0.000000,0.000000
482149141.488967,-0.043793,-0.006836,-1.066452,0.001597,0.011987,0.002997,0.999994,0.003017,-0.001596,-0.002997,0.999924,0.011986,0.001632,-0.011981,0.999927,0.001596,-0.011986,-0.999927,0.039862,-0.003273,-0.040448,0.003400,-0.000848,-0.000992,346.551697,351.014496,-1.000000,0.000000,0.000000
482149141.499107,-0.020065,-0.002396,-1.071182,0.001580,0.012005,0.003044,0.999994,0.003063,-0.001580,-0.003043,0.999923,0.012004,0.001616,-0.011999,0.999927,0.001580,-0.012004,-0.999927,-0.215081,0.009502,-0.054013,-0.001543,-0.005481,0.001440,346.551697,351.014496,-1.000000,0.000000,0.000000
482149141.510214,-0.088577,-0.002930,-1.055008,0.001580,0.012005,0.003044,0.999994,0.003063,-0.001580,-0.003043,0.999923,0.012004,0.001616,-0.011999,0.999927,0.001580,-0.012004,-0.999927,-0.215081,0.009502,-0.054013,-0.001543,-0.005481,0.001440,346.551697,351.014496,-1.000000,0.000000,0.000000
482149141.519217,-0.062439,-0.012482,-1.071503,0.001594,0.012014,0.003022,0.999994,0.003041,-0.001594,-0.003022,0.999923,0.012013,0.001630,-0.012008,0.999927,0.001594,-0.012013,-0.999927,-0.045386,0.005177,-0.066525,-0.001541,0.002602,0.001453,346.551697,351.014496,-1.000000,0.000000,0.000000
482149141.529480,-0.052612,-0.014526,-1.050827,0.001566,0.012062,0.003068,0.999994,0.003087,-0.001566,-0.003068,0.999923,0.012061,0.001603,-0.012056,0.999926,0.001566,-0.012061,-0.999926,-0.021631,0.009666,-0.071256,0.008333,-0.000813,-0.000970,346.551697,351.014496,-1.000000,0.000000,0.000000
482149141.540061,0.045563,-0.013519,-1.062866,0.001566,0.012062,0.003068,0.999994,0.003087,-0.001566,-0.003068,0.999923,0.012061,0.001603,-0.012056,0.999926,0.001566,-0.012061,-0.999926,-0.021631,0.009666,-0.071256,0.008333,-0.000813,-0.000970,346.551697,351.014496,-1.000000,0.000000,0.000000
482149141.549622,0.204117,-0.005798,-1.078384,0.001569,0.012077,0.003083,0.999994,0.003102,-0.001569,-0.003082,0.999922,0.012076,0.001606,-0.012071,0.999926,0.001569,-0.012076,-0.999926,-0.090146,0.009147,-0.055082,0.003392,-0.000827,0.001470,346.549988,351.012787,-1.000000,0.000000,0.000000
482149141.560627,0.139816,-0.017303,-1.061218,0.001507,0.012143,0.003171,0.999994,0.003189,-0.001507,-0.003171,0.999921,0.012142,0.001546,-0.012137,0.999925,0.001507,-0.012142,-0.999925,-0.054120,-0.002384,-0.050902,0.004609,0.001533,0.006403,346.549988,351.012787,-1.000000,0.000000,0.000000
482149141.571625,0.067215,-0.007996,-1.063675,0.001482,0.012128,0.003227,0.999994,0.003245,-0.001482,-0.003227,0.999921,0.012127,0.001521,-0.012122,0.999925,0.001482,-0.012127,-0.999925,0.044081,-0.001392,-0.062941,-0.001555,-0.003140,0.005136,346.549988,351.012787,-1.000000,0.000000,0.000000
482149141.579200,0.067215,-0.007996,-1.063675,0.001482,0.012128,0.003227,0.999994,0.003245,-0.001482,-0.003227,0.999921,0.012127,0.001521,-0.012122,0.999925,0.001482,-0.012127,-0.999925,0.044081,-0.001392,-0.062941,-0.001555,-0.003140,0.005136,346.549988,351.012787,-1.000000,0.000000,0.000000
482149141.589067,0.166473,-0.015762,-1.049240,0.001549,0.012116,0.003255,0.999993,0.003274,-0.001549,-0.003255,0.999921,0.012115,0.001588,-0.012110,0.999925,0.001549,-0.012115,-0.999925,0.138267,-0.005188,-0.061293,-0.002757,0.006015,-0.003472,346.549988,351.012787,-1.000000,0.000000,0.000000
482149141.600245,0.128708,-0.008179,-1.062241,0.001557,0.012101,0.003317,0.999993,0.003336,-0.001557,-0.003317,0.999921,0.012100,0.001597,-0.012095,0.999926,0.001557,-0.012100,-0.999926,0.065658,0.004105,-0.063749,0.000929,0.001454,0.000231,346.545715,351.008514,-1.000000,0.000000,0.000000
482149141.609428,0.125900,-0.014114,-1.067200,0.001557,0.012101,0.003317,0.999993,0.003336,-0.001557,-0.003317,0.999921,0.012100,0.001597,-0.012095,0.999926,0.001557,-0.012100,-0.999926,0.065658,0.004105,-0.063749,0.000929,0.001454,0.000231,346.545715,351.008514,-1.000000,0.000000,0.000000
482149141.619338,0.034683,-0.017212,-1.054138,0.001535,0.012154,0.003388,0.999993,0.003406,-0.001535,-0.003387,0.999920,0.012154,0.001576,-0.012149,0.999925,0.001535,-0.012154,-0.999925,0.164939,-0.003608,-0.049315,0.000921,-0.000834,0.002689,346.545715,351.008514,-1.000000,0.000000,0.000000
482149141.633232,-0.140732,-0.015900,-1.065201,0.001532,0.012145,0.003420,0.999993,0.003438,-0.001532,-0.003419,0.999920,0.012145,0.001573,-0.012140,0.999925,0.001532,-0.012145,-0.999925,0.127176,0.003966,-0.062316,-0.000312,0.001466,0.002687,346.545715,351.008514,-1.000000,0.000000,0.000000
482149141.638890,-0.235214,-0.005112,-1.060974,0.001532,0.012145,0.003420,0.999993,0.003438,-0.001532,-0.003419,0.999920,0.012145,0.001573,-0.012140,0.999925,0.001532,-0.012145,-0.999925,0.127176,0.003966,-0.062316,-0.000312,0.001466,0.002687,346.545715,351.008514,-1.000000,0.000000,0.000000
482149141.649494,-0.030762,-0.016937,-1.051666,0.001655,0.012139,0.003478,0.999992,0.003498,-0.001655,-0.003478,0.999920,0.012139,0.001697,-0.012133,0.999925,0.001655,-0.012139,-0.999925,0.033028,-0.005073,-0.054213,0.000910,0.003816,0.006390,346.544373,351.007172,-1.000000,0.000000,0.000000
482149141.659504,-0.068558,-0.008316,-1.060760,0.001680,0.012148,0.003523,0.999992,0.003544,-0.001680,-0.003523,0.999920,0.012148,0.001723,-0.012142,0.999925,0.001680,-0.012148,-0.999925,-0.142412,-0.003752,-0.065276,-0.002808,0.004879,0.001553,346.544373,351.007172,-1.000000,0.000000,0.000000
482149141.670623,-0.104248,-0.006668,-1.065903,0.001680,0.012148,0.003523,0.999992,0.003544,-0.001680,-0.003523,0.999920,0.012148,0.001723,-0.012142,0.999925,0.001680,-0.012148,-0.999925,-0.142412,-0.003752,-0.065276,-0.002808,0.004879,0.001553,346.544373,351.007172,-1.000000,0.000000,0.000000
482149141.680662,-0.104248,-0.006668,-1.065903,0.001669,0.012184,0.003464,0.999993,0.003484,-0.001669,-0.003464,0.999920,0.012183,0.001711,-0.012177,0.999924,0.001669,-0.012183,-0.999924,-0.032431,-0.004754,-0.051742,0.002147,-0.002078,-0.005823,346.544373,351.007172,-1.000000,0.000000,0.000000
482149141.691634,-0.035950,-0.001083,-1.069336,0.001638,0.012174,0.003473,0.999993,0.003493,-0.001638,-0.003473,0.999920,0.012174,0.001680,-0.012168,0.999925,0.001638,-0.012174,-0.999925,-0.032399,-0.004763,-0.051742,-0.002810,-0.003205,0.001539,346.544373,351.007172,-1.000000,0.000000,0.000000
482149141.699503,-0.035950,-0.001083,-1.069336,0.001638,0.012174,0.003473,0.999993,0.003493,-0.001638,-0.003473,0.999920,0.012174,0.001680,-0.012168,0.999925,0.001638,-0.012174,-0.999925,-0.032399,-0.004763,-0.051742,-0.002810,-0.003205,0.001539,346.539215,351.002014,-1.000000,0.000000,0.000000
482149141.709018,0.068298,-0.013885,-1.051926,0.001627,0.012246,0.003450,0.999993,0.003469,-0.001627,-0.003449,0.999919,0.012245,0.001669,-0.012240,0.999924,0.001627,-0.012245,-0.999924,-0.105875,0.005577,-0.065979,0.000910,0.001388,-0.004591,346.539215,351.002014,-1.000000,0.000000,0.000000
482149141.719221,0.104965,-0.008759,-1.069290,0.001624,0.012242,0.003459,0.999993,0.003479,-0.001623,-0.003458,0.999919,0.012242,0.001666,-0.012236,0.999924,0.001623,-0.012242,-0.999924,-0.042197,-0.004588,-0.064545,-0.000348,-0.004332,0.002780,346.539215,351.002014,-1.000000,0.000000,0.000000
482149141.731150,0.146713,-0.015442,-1.059204,0.001651,0.012206,0.003501,0.999992,0.003521,-0.001651,-0.003501,0.999919,0.012206,0.001694,-0.012200,0.999924,0.001651,-0.012206,-0.999924,0.066648,-0.001680,-0.052002,-0.005277,-0.002068,0.001530,346.539215,351.002014,-1.000000,0.000000,0.000000
482149141.739166,0.077057,-0.006134,-1.055786,0.001651,0.012206,0.003501,0.999992,0.003521,-0.001651,-0.003501,0.999919,0.012206,0.001694,-0.012200,0.999924,0.001651,-0.012206,-0.999924,0.066648,-0.001680,-0.052002,-0.005277,-0.002068,0.001530,346.539215,351.002014,-1.000000,0.000000,0.000000
482149141.749285,0.178436,-0.012161,-1.070740,0.001631,0.012257,0.003498,0.999992,0.003518,-0.001631,-0.003498,0.999919,0.012256,0.001674,-0.012250,0.999924,0.001631,-0.012256,-0.999924,0.103334,0.003498,-0.069367,0.004600,-0.006648,-0.002125,346.532867,350.995667,-1.000000,0.000000,0.000000
482149141.760616,0.149460,-0.007538,-1.056213,0.001682,0.012286,0.003505,0.999992,0.003525,-0.001681,-0.003504,0.999918,0.012286,0.001725,-0.012280,0.999923,0.001681,-0.012286,-0.999923,0.075375,0.006152,-0.055863,0.000888,0.007225,0.002804,346.532867,350.995667,-1.000000,0.000000,0.000000
482149141.769826,0.115936,-0.010941,-1.069214,0.001682,0.012286,0.003505,0.999992,0.003525,-0.001681,-0.003504,0.999918,0.012286,0.001725,-0.012280,0.999923,0.001681,-0.012286,-0.999923,0.075375,0.006152,-0.055863,0.000888,0.007225,0.002804,346.532867,350.995667,-1.000000,0.000000,0.000000
482149141.779645,0.015900,-0.018860,-1.055252,0.001695,0.012295,0.003526,0.999992,0.003547,-0.001695,-0.003526,0.999918,0.012294,0.001739,-0.012288,0.999923,0.001695,-0.012294,-0.999923,0.075362,0.006160,-0.055863,0.002132,0.000273,-0.000895,346.532867,350.995667,-1.000000,0.000000,0.000000
482149141.790769,-0.065536,-0.008438,-1.068573,0.001733,0.012204,0.003652,0.999992,0.003673,-0.001733,-0.003651,0.999919,0.012204,0.001778,-0.012197,0.999924,0.001733,-0.012204,-0.999924,0.147727,0.004666,-0.056289,-0.006524,0.007203,0.006463,346.532867,350.995667,-1.000000,0.000000,0.000000
482149141.799111,-0.065536,-0.008438,-1.068573,0.001733,0.012204,0.003652,0.999992,0.003673,-0.001733,-0.003651,0.999919,0.012204,0.001778,-0.012197,0.999924,0.001733,-0.012204,-0.999924,0.147727,0.004666,-0.056289,-0.006524,0.007203,0.006463,346.528625,350.991425,-1.000000,0.000000,0.000000
482149141.809652,-0.234268,-0.001205,-1.067810,0.001736,0.012206,0.003703,0.999992,0.003724,-0.001735,-0.003703,0.999919,0.012206,0.001781,-0.012200,0.999924,0.001735,-0.012206,-0.999924,0.114201,0.001266,-0.069290,-0.001581,-0.002031,0.002778,346.528625,350.991425,-1.000000,0.000000,0.000000
482149141.820046,-0.051727,-0.012497,-1.043991,0.001678,0.012164,0.003805,0.999991,0.003825,-0.001678,-0.003804,0.999919,0.012163,0.001725,-0.012157,0.999925,0.001678,-0.012163,-0.999925,-0.067215,0.003725,-0.068648,0.003361,0.001448,0.000344,346.528625,350.991425,-1.000000,0.000000,0.000000
482149141.829375,-0.103241,-0.007706,-1.068848,0.001678,0.012164,0.003805,0.999991,0.003825,-0.001678,-0.003804,0.999919,0.012163,0.001725,-0.012157,0.999925,0.001678,-0.012163,-0.999925,-0.067215,0.003725,-0.068648,0.003361,0.001448,0.000344,346.528625,350.991425,-1.000000,0.000000,0.000000
482149141.839373,-0.111206,-0.008453,-1.057159,0.001670,0.012221,0.003760,0.999991,0.003781,-0.001670,-0.003760,0.999918,0.012220,0.001716,-0.012214,0.999924,0.001670,-0.012220,-0.999924,-0.235938,0.011015,-0.067886,0.003369,0.001427,-0.002118,346.528625,350.991425,-1.000000,0.000000,0.000000
482149141.849361,-0.046585,-0.016663,-1.055695,0.001721,0.012286,0.003815,0.999991,0.003836,-0.001720,-0.003814,0.999917,0.012286,0.001767,-0.012279,0.999923,0.001720,-0.012286,-0.999923,-0.053448,-0.000211,-0.044068,0.008299,0.004936,-0.000859,346.528625,350.991425,-1.000000,0.000000,0.000000
482149141.859451,-0.024155,0.003647,-1.071198,0.001721,0.012286,0.003815,0.999991,0.003836,-0.001720,-0.003814,0.999917,0.012286,0.001767,-0.012279,0.999923,0.001720,-0.012286,-0.999923,-0.053448,-0.000211,-0.044068,0.008299,0.004936,-0.000859,346.529297,350.992096,-1.000000,0.000000,0.000000
482149141.869331,0.078293,-0.019012,-1.045975,0.001690,0.012342,0.003843,0.999991,0.003863,-0.001689,-0.003842,0.999916,0.012342,0.001737,-0.012335,0.999922,0.001689,-0.012342,-0.999922,-0.104930,0.004636,-0.068925,0.004562,-0.001991,0.004101,346.529297,350.992096,-1.000000,0.000000,0.000000
482149141.878498,0.078293,-0.019012,-1.045975,0.001717,0.012401,0.003928,0.999991,0.003949,-0.001717,-0.003928,0.999915,0.012401,0.001766,-0.012394,0.999922,0.001717,-0.012401,-0.999922,-0.048302,-0.004262,-0.055773,0.002100,-0.000864,0.002860,346.529297,350.992096,-1.000000,0.000000,0.000000
482149141.889618,0.205017,-0.008621,-1.057785,0.001717,0.012401,0.003928,0.999991,0.003949,-0.001717,-0.003928,0.999915,0.012401,0.001766,-0.012394,0.999922,0.001717,-0.012401,-0.999922,-0.048302,-0.004262,-0.055773,0.002100,-0.000864,0.002860,346.529297,350.992096,-1.000000,0.000000,0.000000
482149141.899537,0.169479,-0.010040,-1.073730,0.001737,0.012452,0.003872,0.999991,0.003894,-0.001737,-0.003872,0.999915,0.012451,0.001785,-0.012445,0.999921,0.001737,-0.012451,-0.999921,-0.025891,0.016098,-0.071277,0.004594,0.000235,-0.005744,346.529297,350.992096,-1.000000,0.000000,0.000000
482149141.909441,0.056320,-0.005829,-1.069626,0.001725,0.012439,0.003808,0.999991,0.003829,-0.001725,-0.003808,0.999915,0.012439,0.001772,-0.012432,0.999921,0.001725,-0.012439,-0.999921,0.203292,0.003817,-0.057864,0.003351,0.004877,-0.002049,346.532806,350.995605,-1.000000,0.000000,0.000000
482149141.920423,0.158493,-0.014618,-1.048340,0.001725,0.012439,0.003808,0.999991,0.003829,-0.001725,-0.003808,0.999915,0.012439,0.001772,-0.012432,0.999921,0.001725,-0.012439,-0.999921,0.203292,0.003817,-0.057864,0.003351,0.004877,-0.002049,346.532806,350.995605,-1.000000,0.000000,0.000000
482149141.929452,0.123932,-0.016006,-1.061340,0.001711,0.012442,0.003758,0.999991,0.003779,-0.001711,-0.003758,0.999916,0.012441,0.001758,-0.012435,0.999921,0.001711,-0.012441,-0.999921,0.167769,0.002401,-0.073809,0.003353,0.000247,-0.003288,346.532806,350.995605,-1.000000,0.000000,0.000000
482149141.939593,0.108810,-0.003860,-1.066330,0.001682,0.012392,0.003801,0.999991,0.003822,-0.001681,-0.003801,0.999916,0.012392,0.001729,-0.012386,0.999922,0.001681,-0.012392,-0.999922,0.054639,0.006563,-0.069704,-0.006530,-0.003245,0.001586,346.532806,350.995605,-1.000000,0.000000,0.000000
482149141.950706,0.023636,-0.012985,-1.046371,0.001682,0.012392,0.003801,0.999991,0.003822,-0.001681,-0.003801,0.999916,0.012392,0.001729,-0.012386,0.999922,0.001681,-0.012392,-0.999922,0.054639,0.006563,-0.069704,-0.006530,-0.003245,0.001586,346.532806,350.995605,-1.000000,0.000000,0.000000
482149141.965378,-0.040527,-0.014923,-1.075256,0.001605,0.012388,0.003770,0.999992,0.003790,-0.001605,-0.003770,0.999916,0.012388,0.001651,-0.012382,0.999922,0.001605,-0.012388,-0.999922,0.107206,0.008527,-0.066408,0.003328,-0.005464,0.004089,346.532806,350.995605,-1.000000,0.000000,0.000000
482149141.968614,-0.208282,-0.010605,-1.065689,0.001605,0.012388,0.003770,0.999992,0.003790,-0.001605,-0.003770,0.999916,0.012388,0.001651,-0.012382,0.999922,0.001605,-0.012388,-0.999922,0.107206,0.008527,-0.066408,0.003328,-0.005464,0.004089,346.532806,350.995605,-1.000000,0.000000,0.000000
482149141.980211,-0.051605,-0.017502,-1.047897,0.001591,0.012456,0.003828,0.999991,0.003848,-0.001591,-0.003828,0.999915,0.012456,0.001638,-0.012450,0.999921,0.001591,-0.012456,-0.999921,0.022045,-0.000529,-0.046450,0.009491,-0.003100,0.005352,346.536957,350.999756,-1.000000,0.000000,0.000000
482149141.989426,-0.051605,-0.017502,-1.047897,0.001591,0.012456,0.003828,0.999991,0.003848,-0.001591,-0.003828,0.999915,0.012456,0.001638,-0.012450,0.999921,0.001591,-0.012456,-0.999921,0.022045,-0.000529,-0.046450,0.009491,-0.003100,0.005352,346.536957,350.999756,-1.000000,0.000000,0.000000
482149141.998750,-0.063446,-0.013412,-1.066589,0.001601,0.012479,0.003872,0.999991,0.003892,-0.001601,-0.003872,0.999915,0.012479,0.001649,-0.012473,0.999921,0.001601,-0.012479,-0.999921,-0.209883,0.001874,-0.065768,-0.005283,0.002505,-0.002092,346.536957,350.999756,-1.000000,0.000000,0.000000
482149142.009184,-0.097168,-0.011810,-1.069794,0.001626,0.012500,0.003876,0.999991,0.003896,-0.001626,-0.003875,0.999914,0.012500,0.001675,-0.012493,0.999921,0.001626,-0.012500,-0.999921,-0.209909,0.001895,-0.065769,0.005796,0.002636,0.004113,346.536957,350.999756,-1.000000,0.000000,0.000000
