Timestamp,Accel_X,Accel_Y,Accel_Z,Roll,Pitch,Yaw,RM11,RM12,RM13,RM21,RM22,RM23,RM31,RM32,RM33,GravAcc_X,GravAcc_Y,GravAcc_Z,UserAcc_X,UserAcc_Y,UserAcc_Z,RotRate_X,RotRate_Y,RotRate_Z,MagHeading,TrueHeading,HeadingAccuracy,Course,Speed
482149491.783409,0.011749,-0.009888,-1.062149,0.009438,0.008982,0.005507,0.999940,0.005591,-0.009437,-0.005507,0.999945,0.008982,0.009487,-0.008930,0.999915,0.009437,-0.008982,-0.999915,0.002342,-0.001867,-0.060266,-0.002358,0.000143,0.000885,346.236328,350.699127,-1.000000,0.000000,0.000000
482149491.817309,0.011749,-0.009888,-1.062149,0.009438,0.008982,0.005507,0.999940,0.005591,-0.009437,-0.005507,0.999945,0.008982,0.009487,-0.008930,0.999915,0.009437,-0.008982,-0.999915,0.002342,-0.001867,-0.060266,-0.002358,0.000143,0.000885,346.236328,350.699127,-1.000000,0.000000,0.000000
482149491.822291,-0.023560,-0.016327,-1.087875,0.009438,0.008982,0.005507,0.999940,0.005591,-0.009437,-0.005507,0.999945,0.008982,0.009487,-0.008930,0.999915,0.009437,-0.008982,-0.999915,0.002342,-0.001867,-0.060266,-0.002358,0.000143,0.000885,346.236328,350.699127,-1.000000,0.000000,0.000000
482149491.833175,-0.076370,-0.017044,-1.050034,0.009438,0.008982,0.005507,0.999940,0.005591,-0.009437,-0.005507,0.999945,0.008982,0.009487,-0.008930,0.999915,0.009437,-0.008982,-0.999915,0.002342,-0.001867,-0.060266,-0.002358,0.000143,0.000885,346.236328,350.699127,-1.000000,0.000000,0.000000
482149491.842792,-0.200409,-0.006790,-1.067581,0.009438,0.008982,0.005507,0.999940,0.005591,-0.009437,-0.005507,0.999945,0.008982,0.009487,-0.008930,0.999915,0.009437,-0.008982,-0.999915,0.002342,-0.001867,-0.060266,-0.002358,0.000143,0.000885,346.236328,350.699127,-1.000000,0.000000,0.000000
482149491.852876,-0.047943,-0.004654,-1.045898,0.009438,0.008982,0.005507,0.999940,0.005591,-0.009437,-0.005507,0.999945,0.008982,0.009487,-0.008930,0.999915,0.009437,-0.008982,-0.999915,0.002342,-0.001867,-0.060266,-0.002358,0.000143,0.000885,346.236328,350.699127,-1.000000,0.000000,0.000000
482149491.862827,-0.042908,0.000015,-1.072311,0.009438,0.008982,0.005507,0.999940,0.005591,-0.009437,-0.005507,0.999945,0.008982,0.009487,-0.008930,0.999915,0.009437,-0.008982,-0.999915,0.002342,-0.001867,-0.060266,-0.002358,0.000143,0.000885,346.236328,350.699127,-1.000000,0.000000,0.000000
482149491.872800,0.047516,-0.017410,-1.046204,0.009438,0.008982,0.005507,0.999940,0.005591,-0.009437,-0.005507,0.999945,0.008982,0.009487,-0.008930,0.999915,0.009437,-0.008982,-0.999915,0.002342,-0.001867,-0.060266,-0.002358,0.000143,0.000885,346.236328,350.699127,-1.000000,0.000000,0.000000
482149491.882486,0.084335,-0.007584,-1.098831,0.009438,0.008982,0.005507,0.999940,0.005591,-0.009437,-0.005507,0.999945,0.008982,0.009487,-0.008930,0.999915,0.009437,-0.008982,-0.999915,0.002342,-0.001867,-0.060266,-0.002358,0.000143,0.000885,346.236328,350.699127,-1.000000,0.000000,0.000000
482149491.894684,0.158539,-0.016571,-1.044418,0.009438,0.008982,0.005507,0.999940,0.005591,-0.009437,-0.005507,0.999945,0.008982,0.009487,-0.008930,0.999915,0.009437,-0.008982,-0.999915,0.002342,-0.001867,-0.060266,-0.002358,0.000143,0.000885,346.236328,350.699127,-1.000000,0.000000,0.000000
482149491.902659,0.158539,-0.016571,-1.044418,0.009438,0.008982,0.005507,0.999940,0.005591,-0.009437,-0.005507,0.999945,0.008982,0.009487,-0.008930,0.999915,0.009437,-0.008982,-0.999915,0.002342,-0.001867,-0.060266,-0.002358,0.000143,0.000885,346.236328,350.699127,-1.000000,0.000000,0.000000
482149491.912839,0.038361,-0.003448,-1.060944,0.009438,0.008982,0.005507,0.999940,0.005591,-0.009437,-0.005507,0.999945,0.008982,0.009487,-0.008930,0.999915,0.009437,-0.008982,-0.999915,0.002342,-0.001867,-0.060266,-0.002358,0.000143,0.000885,346.236328,350.699127,-1.000000,0.000000,0.000000
482149491.922940,0.053314,-0.006714,-1.061829,0.009438,0.008982,0.005507,0.999940,0.005591,-0.009437,-0.005507,0.999945,0.008982,0.009487,-0.008930,0.999915,0.009437,-0.008982,-0.999915,0.002342,-0.001867,-0.060266,-0.002358,0.000143,0.000885,346.236328,350.699127,-1.000000,0.000000,0.000000
482149491.934131,0.133667,-0.009262,-1.061249,0.009438,0.008982,0.005507,0.999940,0.005591,-0.009437,-0.005507,0.999945,0.008982,0.009487,-0.008930,0.999915,0.009437,-0.008982,-0.999915,0.002342,-0.001867,-0.060266,-0.002358,0.000143,0.000885,346.236328,350.699127,-1.000000,0.000000,0.000000
482149491.942598,0.052277,-0.003769,-1.067703,0.009438,0.008982,0.005507,0.999940,0.005591,-0.009437,-0.005507,0.999945,0.008982,0.009487,-0.008930,0.999915,0.009437,-0.008982,-0.999915,0.002342,-0.001867,-0.060266,-0.002358,0.000143,0.000885,346.236328,350.699127,-1.000000,0.000000,0.000000
482149491.955495,-0.000092,-0.006775,-1.074951,0.009438,0.008982,0.005507,0.999940,0.005591,-0.009437,-0.005507,0.999945,0.008982,0.009487,-0.008930,0.999915,0.009437,-0.008982,-0.999915,0.002342,-0.001867,-0.060266,-0.002358,0.000143,0.000885,346.236328,350.699127,-1.000000,0.000000,0.000000
482149491.972757,-0.161362,-0.019562,-1.077103,0.009438,0.008982,0.005507,0.999940,0.005591,-0.009437,-0.005507,0.999945,0.008982,0.009487,-0.008930,0.999915,0.009437,-0.008982,-0.999915,0.002342,-0.001867,-0.060266,-0.002358,0.000143,0.000885,346.236328,350.699127,-1.000000,0.000000,0.000000
482149491.982544,-0.107437,-0.002548,-1.054169,0.009438,0.008982,0.005507,0.999940,0.005591,-0.009437,-0.005507,0.999945,0.008982,0.009487,-0.008930,0.999915,0.009437,-0.008982,-0.999915,0.002342,-0.001867,-0.060266,-0.002358,0.000143,0.000885,346.236328,350.699127,-1.000000,0.000000,0.000000
482149491.993999,-0.076340,-0.010269,-1.077469,0.009438,0.008982,0.005507,0.999940,0.005591,-0.009437,-0.005507,0.999945,0.008982,0.009487,-0.008930,0.999915,0.009437,-0.008982,-0.999915,0.002342,-0.001867,-0.060266,-0.002358,0.000143,0.000885,346.236328,350.699127,-1.000000,0.000000,0.000000
482149492.002686,0.019608,-0.007996,-1.054245,0.009438,0.008982,0.005507,0.999940,0.005591,-0.009437,-0.005507,0.999945,0.008982,0.009487,-0.008930,0.999915,0.009437,-0.008982,-0.999915,0.002342,-0.001867,-0.060266,-0.002358,0.000143,0.000885,346.236328,350.699127,-1.000000,0.000000,0.000000
482149492.014215,0.108658,0.000168,-1.060440,0.009438,0.008982,0.005507,0.999940,0.005591,-0.009437,-0.005507,0.999945,0.008982,0.009487,-0.008930,0.999915,0.009437,-0.008982,-0.999915,0.002342,-0.001867,-0.060266,-0.002358,0.000143,0.000885,346.236328,350.699127,-1.000000,0.000000,0.000000
482149492.022678,0.186462,-0.021149,-1.053040,0.009438,0.008982,0.005507,0.999940,0.005591,-0.009437,-0.005507,0.999945,0.008982,0.009487,-0.008930,0.999915,0.009437,-0.008982,-0.999915,0.002342,-0.001867,-0.060266,-0.002358,0.000143,0.000885,346.236328,350.699127,-1.000000,0.000000,0.000000
482149492.032762,0.102036,-0.009689,-1.070312,0.009438,0.008982,0.005507,0.999940,0.005591,-0.009437,-0.005507,0.999945,0.008982,0.009487,-0.008930,0.999915,0.009437,-0.008982,-0.999915,0.002342,-0.001867,-0.060266,-0.002358,0.000143,0.000885,346.236328,350.699127,-1.000000,0.000000,0.000000
482149492.045837,0.117905,-0.014862,-1.053528,0.009438,0.008982,0.005507,0.999940,0.005591,-0.009437,-0.005507,0.999945,0.008982,0.009487,-0.008930,0.999915,0.009437,-0.008982,-0.999915,0.002342,-0.001867,-0.060266,-0.002358,0.000143,0.000885,346.236328,350.699127,-1.000000,0.000000,0.000000
482149492.052517,0.117905,-0.014862,-1.053528,0.009438,0.008982,0.005507,0.999940,0.005591,-0.009437,-0.005507,0.999945,0.008982,0.009487,-0.008930,0.999915,0.009437,-0.008982,-0.999915,0.002342,-0.001867,-0.060266,-0.002358,0.000143,0.000885,346.236328,350.699127,-1.000000,0.000000,0.000000
482149492.063430,0.132812,-0.007416,-1.085739,0.009438,0.008982,0.005507,0.999940,0.005591,-0.009437,-0.005507,0.999945,0.008982,0.009487,-0.008930,0.999915,0.009437,-0.008982,-0.999915,0.002342,-0.001867,-0.060266,-0.002358,0.000143,0.000885,346.236328,350.699127,-1.000000,0.000000,0.000000
482149492.072573,0.027542,-0.010101,-1.048294,0.009438,0.008982,0.005507,0.999940,0.005591,-0.009437,-0.005507,0.999945,0.008982,0.009487,-0.008930,0.999915,0.009437,-0.008982,-0.999915,0.002342,-0.001867,-0.060266,-0.002358,0.000143,0.000885,346.236328,350.699127,-1.000000,0.000000,0.000000
482149492.082414,0.003998,-0.013748,-1.067093,0.009438,0.008982,0.005507,0.999940,0.005591,-0.009437,-0.005507,0.999945,0.008982,0.009487,-0.008930,0.999915,0.009437,-0.008982,-0.999915,0.002342,-0.001867,-0.060266,-0.002358,0.000143,0.000885,346.236328,350.699127,-1.000000,0.000000,0.000000
482149492.095099,-0.081528,-0.006058,-1.056946,0.009438,0.008982,0.005507,0.999940,0.005591,-0.009437,-0.005507,0.999945,0.008982,0.009487,-0.008930,0.999915,0.009437,-0.008982,-0.999915,0.002342,-0.001867,-0.060266,-0.002358,0.000143,0.000885,346.236328,350.699127,-1.000000,0.000000,0.000000
482149492.103024,-0.045456,-0.028458,-1.036087,0.009438,0.008982,0.005507,0.999940,0.005591,-0.009437,-0.005507,0.999945,0.008982,0.009487,-0.008930,0.999915,0.009437,-0.008982,-0.999915,0.002342,-0.001867,-0.060266,-0.002358,0.000143,0.000885,346.236328,350.699127,-1.000000,0.000000,0.000000
482149492.113386,-0.138000,-0.007935,-1.058304,0.009438,0.008982,0.005507,0.999940,0.005591,-0.009437,-0.005507,0.999945,0.008982,0.009487,-0.008930,0.999915,0.009437,-0.008982,-0.999915,0.002342,-0.001867,-0.060266,-0.002358,0.000143,0.000885,346.236328,350.699127,-1.000000,0.000000,0.000000
482149492.123023,-0.055267,-0.027405,-1.052811,0.009438,0.008982,0.005507,0.999940,0.005591,-0.009437,-0.005507,0.999945,0.008982,0.009487,-0.008930,0.999915,0.009437,-0.008982,-0.999915,0.002342,-0.001867,-0.060266,-0.002358,0.000143,0.000885,346.236328,350.699127,-1.000000,0.000000,0.000000
482149492.132125,0.052307,-0.005722,-1.064758,0.009438,0.008982,0.005507,0.999940,0.005591,-0.009437,-0.005507,0.999945,0.008982,0.009487,-0.008930,0.999915,0.009437,-0.008982,-0.999915,0.002342,-0.001867,-0.060266,-0.002358,0.000143,0.000885,346.236328,350.699127,-1.000000,0.000000,0.000000
482149492.145648,0.133667,-0.007309,-1.066147,0.009438,0.008982,0.005507,0.999940,0.005591,-0.009437,-0.005507,0.999945,0.008982,0.009487,-0.008930,0.999915,0.009437,-0.008982,-0.999915,0.002342,-0.001867,-0.060266,-0.002358,0.000143,0.000885,346.236328,350.699127,-1.000000,0.000000,0.000000
482149492.152757,0.207031,-0.009659,-1.057770,0.009438,0.008982,0.005507,0.999940,0.005591,-0.009437,-0.005507,0.999945,0.008982,0.009487,-0.008930,0.999915,0.009437,-0.008982,-0.999915,0.002342,-0.001867,-0.060266,-0.002358,0.000143,0.000885,346.236328,350.699127,-1.000000,0.000000,0.000000
482149492.162840,0.093994,-0.002686,-1.079178,0.009438,0.008982,0.005507,0.999940,0.005591,-0.009437,-0.005507,0.999945,0.008982,0.009487,-0.008930,0.999915,0.009437,-0.008982,-0.999915,0.002342,-0.001867,-0.060266,-0.002358,0.000143,0.000885,346.236328,350.699127,-1.000000,0.000000,0.000000
482149492.177363,0.093994,-0.002686,-1.079178,0.009438,0.008982,0.005507,0.999940,0.005591,-0.009437,-0.005507,0.999945,0.008982,0.009487,-0.008930,0.999915,0.009437,-0.008982,-0.999915,0.002342,-0.001867,-0.060266,-0.002358,0.000143,0.000885,346.236328,350.699127,-1.000000,0.000000,0.000000
482149492.182668,0.164368,-0.011734,-1.046326,0.009438,0.008982,0.005507,0.999940,0.005591,-0.009437,-0.005507,0.999945,0.008982,0.009487,-0.008930,0.999915,0.009437,-0.008982,-0.999915,0.002342,-0.001867,-0.060266,-0.002358,0.000143,0.000885,346.236328,350.699127,-1.000000,0.000000,0.000000
482149492.196474,0.017853,-0.011078,-1.075806,0.009438,0.008982,0.005507,0.999940,0.005591,-0.009437,-0.005507,0.999945,0.008982,0.009487,-0.008930,0.999915,0.009437,-0.008982,-0.999915,0.002342,-0.001867,-0.060266,-0.002358,0.000143,0.000885,346.236328,350.699127,-1.000000,0.000000,0.000000
482149492.202654,-0.053528,-0.016525,-1.054779,0.009438,0.008982,0.005507,0.999940,0.005591,-0.009437,-0.005507,0.999945,0.008982,0.009487,-0.008930,0.999915,0.009437,-0.008982,-0.999915,0.002342,-0.001867,-0.060266,-0.002358,0.000143,0.000885,346.236328,350.699127,-1.000000,0.000000,0.000000
482149492.212970,-0.215347,-0.005493,-1.061813,0.009438,0.008982,0.005507,0.999940,0.005591,-0.009437,-0.005507,0.999945,0.008982,0.009487,-0.008930,0.999915,0.009437,-0.008982,-0.999915,0.002342,-0.001867,-0.060266,-0.002358,0.000143,0.000885,346.236328,350.699127,-1.000000,0.000000,0.000000
482149492.223041,-0.109253,-0.010437,-1.049286,0.009438,0.008982,0.005507,0.999940,0.005591,-0.009437,-0.005507,0.999945,0.008982,0.009487,-0.008930,0.999915,0.009437,-0.008982,-0.999915,0.002342,-0.001867,-0.060266,-0.002358,0.000143,0.000885,346.236328,350.699127,-1.000000,0.000000,0.000000
482149492.232068,-0.097260,-0.011719,-1.058014,0.009438,0.008982,0.005507,0.999940,0.005591,-0.009437,-0.005507,0.999945,0.008982,0.009487,-0.008930,0.999915,0.009437,-0.008982,-0.999915,0.002342,-0.001867,-0.060266,-0.002358,0.000143,0.000885,346.236328,350.699127,-1.000000,0.000000,0.000000
482149492.246565,-0.112259,-0.005493,-1.062042,0.009438,0.008982,0.005507,0.999940,0.005591,-0.009437,-0.005507,0.999945,0.008982,0.009487,-0.008930,0.999915,0.009437,-0.008982,-0.999915,0.002342,-0.001867,-0.060266,-0.002358,0.000143,0.000885,346.236328,350.699127,-1.000000,0.000000,0.000000
482149492.252649,-0.034653,-0.016922,-1.060516,0.009438,0.008982,0.005507,0.999940,0.005591,-0.009437,-0.005507,0.999945,0.008982,0.009487,-0.008930,0.999915,0.009437,-0.008982,-0.999915,0.002342,-0.001867,-0.060266,-0.002358,0.000143,0.000885,346.236328,350.699127,-1.000000,0.000000,0.000000
482149492.263040,0.045319,0.004166,-1.090302,0.009438,0.008982,0.005507,0.999940,0.005591,-0.009437,-0.005507,0.999945,0.008982,0.009487,-0.008930,0.999915,0.009437,-0.008982,-0.999915,0.002342,-0.001867,-0.060266,-0.002358,0.000143,0.000885,346.236328,350.699127,-1.000000,0.000000,0.000000
482149492.273151,0.092117,-0.003708,-1.090942,0.009438,0.008982,0.005507,0.999940,0.005591,-0.009437,-0.005507,0.999945,0.008982,0.009487,-0.008930,0.999915,0.009437,-0.008982,-0.999915,0.002342,-0.001867,-0.060266,-0.002358,0.000143,0.000885,346.236328,350.699127,-1.000000,0.000000,0.000000
482149492.283461,0.092117,-0.003708,-1.090942,0.009438,0.008982,0.005507,0.999940,0.005591,-0.009437,-0.005507,0.999945,0.008982,0.009487,-0.008930,0.999915,0.009437,-0.008982,-0.999915,0.002342,-0.001867,-0.060266,-0.002358,0.000143,0.000885,346.236328,350.699127,-1.000000,0.000000,0.000000
482149492.295208,0.088898,-0.007278,-1.042953,0.009438,0.008982,0.005507,0.999940,0.005591,-0.009437,-0.005507,0.999945,0.008982,0.009487,-0.008930,0.999915,0.009437,-0.008982,-0.999915,0.002342,-0.001867,-0.060266,-0.002358,0.000143,0.000885,346.236328,350.699127,-1.000000,0.000000,0.000000
482149492.302827,0.156677,-0.014725,-1.069916,0.009438,0.008982,0.005507,0.999940,0.005591,-0.009437,-0.005507,0.999945,0.008982,0.009487,-0.008930,0.999915,0.009437,-0.008982,-0.999915,0.002342,-0.001867,-0.060266,-0.002358,0.000143,0.000885,346.236328,350.699127,-1.000000,0.000000,0.000000
482149492.313030,0.073105,-0.003174,-1.067566,0.009438,0.008982,0.005507,0.999940,0.005591,-0.009437,-0.005507,0.999945,0.008982,0.009487,-0.008930,0.999915,0.009437,-0.008982,-0.999915,0.002342,-0.001867,-0.060266,-0.002358,0.000143,0.000885,346.236328,350.699127,-1.000000,0.000000,0.000000
482149492.323022,0.001877,-0.009705,-1.063171,0.009438,0.008982,0.005507,0.999940,0.005591,-0.009437,-0.005507,0.999945,0.008982,0.009487,-0.008930,0.999915,0.009437,-0.008982,-0.999915,0.002342,-0.001867,-0.060266,-0.002358,0.000143,0.000885,346.236328,350.699127,-1.000000,0.000000,0.000000
482149492.333021,-0.120911,-0.011398,-1.076797,0.009438,0.008982,0.005507,0.999940,0.005591,-0.009437,-0.005507,0.999945,0.008982,0.009487,-0.008930,0.999915,0.009437,-0.008982,-0.999915,0.002342,-0.001867,-0.060266,-0.002358,0.000143,0.000885,346.236328,350.699127,-1.000000,0.000000,0.000000
482149492.343134,-0.219116,-0.012421,-1.068710,0.009438,0.008982,0.005507,0.999940,0.005591,-0.009437,-0.005507,0.999945,0.008982,0.009487,-0.008930,0.999915,0.009437,-0.008982,-0.999915,0.002342,-0.001867,-0.060266,-0.002358,0.000143,0.000885,346.236328,350.699127,-1.000000,0.000000,0.000000
482149492.352951,-0.139130,-0.002960,-1.056351,0.009438,0.008982,0.005507,0.999940,0.005591,-0.009437,-0.005507,0.999945,0.008982,0.009487,-0.008930,0.999915,0.009437,-0.008982,-0.999915,0.002342,-0.001867,-0.060266,-0.002358,0.000143,0.000885,346.236328,350.699127,-1.000000,0.000000,0.000000
482149492.363086,-0.084335,-0.010071,-1.070663,0.009438,0.008982,0.005507,0.999940,0.005591,-0.009437,-0.005507,0.999945,0.008982,0.009487,-0.008930,0.999915,0.009437,-0.008982,-0.999915,0.002342,-0.001867,-0.060266,-0.002358,0.000143,0.000885,346.236328,350.699127,-1.000000,0.000000,0.000000
482149492.374676,-0.084335,-0.010071,-1.070663,0.009438,0.008982,0.005507,0.999940,0.005591,-0.009437,-0.005507,0.999945,0.008982,0.009487,-0.008930,0.999915,0.009437,-0.008982,-0.999915,0.002342,-0.001867,-0.060266,-0.002358,0.000143,0.000885,346.236328,350.699127,-1.000000,0.000000,0.000000
482149492.382679,0.004807,-0.009720,-1.057281,0.009438,0.008982,0.005507,0.999940,0.005591,-0.009437,-0.005507,0.999945,0.008982,0.009487,-0.008930,0.999915,0.009437,-0.008982,-0.999915,0.002342,-0.001867,-0.060266,-0.002358,0.000143,0.000885,346.236328,350.699127,-1.000000,0.000000,0.000000
482149492.392979,0.086914,-0.001434,-1.065491,0.009438,0.008982,0.005507,0.999940,0.005591,-0.009437,-0.005507,0.999945,0.008982,0.009487,-0.008930,0.999915,0.009437,-0.008982,-0.999915,0.002342,-0.001867,-0.060266,-0.002358,0.000143,0.000885,346.236328,350.699127,-1.000000,0.000000,0.000000
482149492.402804,0.185516,-0.018250,-1.069717,0.009438,0.008982,0.005507,0.999940,0.005591,-0.009437,-0.005507,0.999945,0.008982,0.009487,-0.008930,0.999915,0.009437,-0.008982,-0.999915,0.002342,-0.001867,-0.060266,-0.002358,0.000143,0.000885,346.236328,350.699127,-1.000000,0.000000,0.000000
482149492.412979,0.053314,-0.003815,-1.071625,0.009438,0.008982,0.005507,0.999940,0.005591,-0.009437,-0.005507,0.999945,0.008982,0.009487,-0.008930,0.999915,0.009437,-0.008982,-0.999915,0.002342,-0.001867,-0.060266,-0.002358,0.000143,0.000885,346.236328,350.699127,-1.000000,0.000000,0.000000
482149492.423349,0.089081,-0.012283,-1.051773,0.009438,0.008982,0.005507,0.999940,0.005591,-0.009437,-0.005507,0.999945,0.008982,0.009487,-0.008930,0.999915,0.009437,-0.008982,-0.999915,0.002342,-0.001867,-0.060266,-0.002358,0.000143,0.000885,346.236328,350.699127,-1.000000,0.000000,0.000000
482149492.433296,0.156311,-0.004684,-1.052261,0.009438,0.008982,0.005507,0.999940,0.005591,-0.009437,-0.005507,0.999945,0.008982,0.009487,-0.008930,0.999915,0.009437,-0.008982,-0.999915,0.002342,-0.001867,-0.060266,-0.002358,0.000143,0.000885,346.236328,350.699127,-1.000000,0.000000,0.000000
482149492.442973,-0.013809,-0.009598,-1.091721,0.009438,0.008982,0.005507,0.999940,0.005591,-0.009437,-0.005507,0.999945,0.008982,0.009487,-0.008930,0.999915,0.009437,-0.008982,-0.999915,0.002342,-0.001867,-0.060266,-0.002358,0.000143,0.000885,346.236328,350.699127,-1.000000,0.000000,0.000000
482149492.453156,-0.165070,-0.001343,-1.038879,0.009438,0.008982,0.005507,0.999940,0.005591,-0.009437,-0.005507,0.999945,0.008982,0.009487,-0.008930,0.999915,0.009437,-0.008982,-0.999915,0.002342,-0.001867,-0.060266,-0.002358,0.000143,0.000885,346.236328,350.699127,-1.000000,0.000000,0.000000
482149492.463070,-0.119995,-0.009430,-1.076797,0.009438,0.008982,0.005507,0.999940,0.005591,-0.009437,-0.005507,0.999945,0.008982,0.009487,-0.008930,0.999915,0.009437,-0.008982,-0.999915,0.002342,-0.001867,-0.060266,-0.002358,0.000143,0.000885,346.236328,350.699127,-1.000000,0.000000,0.000000
482149492.473134,-0.090302,-0.015762,-1.047195,0.009438,0.008982,0.005507,0.999940,0.005591,-0.009437,-0.005507,0.999945,0.008982,0.009487,-0.008930,0.999915,0.009437,-0.008982,-0.999915,0.002342,-0.001867,-0.060266,-0.002358,0.000143,0.000885,346.236328,350.699127,-1.000000,0.000000,0.000000
482149492.482633,-0.090302,-0.015762,-1.047195,0.009438,0.008982,0.005507,0.999940,0.005591,-0.009437,-0.005507,0.999945,0.008982,0.009487,-0.008930,0.999915,0.009437,-0.008982,-0.999915,0.002342,-0.001867,-0.060266,-0.002358,0.000143,0.000885,346.236328,350.699127,-1.000000,0.000000,0.000000
482149492.493058,-0.133133,-0.003128,-1.062180,0.009438,0.008982,0.005507,0.999940,0.005591,-0.009437,-0.005507,0.999945,0.008982,0.009487,-0.008930,0.999915,0.009437,-0.008982,-0.999915,0.002342,-0.001867,-0.060266,-0.002358,0.000143,0.000885,346.236328,350.699127,-1.000000,0.000000,0.000000
482149492.502951,-0.070328,-0.017227,-1.060776,0.009438,0.008982,0.005507,0.999940,0.005591,-0.009437,-0.005507,0.999945,0.008982,0.009487,-0.008930,0.999915,0.009437,-0.008982,-0.999915,0.002342,-0.001867,-0.060266,-0.002358,0.000143,0.000885,346.236328,350.699127,-1.000000,0.000000,0.000000
482149492.512869,0.024506,-0.007095,-1.052216,0.009438,0.008982,0.005507,0.999940,0.005591,-0.009437,-0.005507,0.999945,0.008982,0.009487,-0.008930,0.999915,0.009437,-0.008982,-0.999915,0.002342,-0.001867,-0.060266,-0.002358,0.000143,0.000885,346.236328,350.699127,-1.000000,0.000000,0.000000
482149492.523030,0.211060,-0.018524,-1.037170,0.009438,0.008982,0.005507,0.999940,0.005591,-0.009437,-0.005507,0.999945,0.008982,0.009487,-0.008930,0.999915,0.009437,-0.008982,-0.999915,0.002342,-0.001867,-0.060266,-0.002358,0.000143,0.000885,346.236328,350.699127,-1.000000,0.000000,0.000000
482149492.533054,0.117096,-0.010147,-1.095688,0.009438,0.008982,0.005507,0.999940,0.005591,-0.009437,-0.005507,0.999945,0.008982,0.009487,-0.008930,0.999915,0.009437,-0.008982,-0.999915,0.002342,-0.001867,-0.060266,-0.002358,0.000143,0.000885,346.236328,350.699127,-1.000000,0.000000,0.000000
482149492.543017,0.148834,-0.028259,-1.035675,0.009438,0.008982,0.005507,0.999940,0.005591,-0.009437,-0.005507,0.999945,0.008982,0.009487,-0.008930,0.999915,0.009437,-0.008982,-0.999915,0.002342,-0.001867,-0.060266,-0.002358,0.000143,0.000885,346.236328,350.699127,-1.000000,0.000000,0.000000
482149492.553380,0.132904,-0.012360,-1.081833,0.134003,0.012475,-0.000830,0.991036,0.000844,-0.133592,0.000830,0.999922,0.012475,0.133592,-0.012474,0.990958,0.133592,-0.012475,-0.990958,-0.016496,0.002328,-0.104730,0.007530,0.001302,0.004539,346.236328,350.699127,-1.000000,0.000000,0.000000
482149492.562969,0.032578,-0.014145,-1.046310,0.134003,0.012475,-0.000830,0.991036,0.000844,-0.133592,0.000830,0.999922,0.012475,0.133592,-0.012474,0.990958,0.133592,-0.012475,-0.990958,-0.016496,0.002328,-0.104730,0.007530,0.001302,0.004539,346.236328,350.699127,-1.000000,0.000000,0.000000
482149492.573010,0.032578,-0.014145,-1.046310,0.133988,0.012550,-0.000868,0.991038,0.000816,-0.133577,0.000868,0.999921,0.012550,0.133576,-0.012553,0.990959,0.133577,-0.012550,-0.990959,-0.016481,0.002403,-0.104729,0.002636,-0.001147,-0.007798,346.236328,350.699127,-1.000000,0.000000,0.000000
482149492.584384,-0.232101,-0.012054,-1.055084,0.133973,0.012618,-0.000922,0.991040,0.000772,-0.133562,0.000921,0.999920,0.012618,0.133561,-0.012628,0.990960,0.133562,-0.012618,-0.990960,-0.000658,0.000258,-0.090873,0.002604,-0.003373,0.002047,346.236328,350.699127,-1.000000,0.000000,0.000000
482149492.592851,-0.232101,-0.012054,-1.055084,0.133973,0.012618,-0.000922,0.991040,0.000772,-0.133562,0.000921,0.999920,0.012618,0.133561,-0.012628,0.990960,0.133562,-0.012618,-0.990960,-0.000658,0.000258,-0.090873,0.002604,-0.003373,0.002047,346.236328,350.699127,-1.000000,0.000000,0.000000
482149492.602705,-0.102127,-0.011703,-1.067871,0.133934,0.012654,-0.000936,0.991045,0.000762,-0.133524,0.000936,0.999919,0.012654,0.133522,-0.012666,0.990965,0.133524,-0.012654,-0.990965,-0.100946,-0.001491,-0.055346,0.007533,-0.002173,0.003302,346.236328,350.699127,-1.000000,0.000000,0.000000
482149492.613039,-0.074371,-0.012222,-1.065689,0.134003,0.012690,-0.000913,0.991036,0.000791,-0.133592,0.000913,0.999919,0.012690,0.133591,-0.012698,0.990955,0.133592,-0.012690,-0.990955,-0.365693,0.000636,-0.064129,0.000127,0.003570,0.005740,346.236328,350.699127,-1.000000,0.000000,0.000000
482149492.623508,-0.014572,-0.025299,-1.066238,0.134003,0.012690,-0.000913,0.991036,0.000791,-0.133592,0.000913,0.999919,0.012690,0.133591,-0.012698,0.990955,0.133592,-0.012690,-0.990955,-0.365693,0.000636,-0.064129,0.000127,0.003570,0.005740,346.236328,350.699127,-1.000000,0.000000,0.000000
482149492.632328,0.035324,-0.004303,-1.048218,0.133975,0.012708,-0.000883,0.991040,0.000822,-0.133564,0.000883,0.999919,0.012707,0.133564,-0.012712,0.990959,0.133564,-0.012707,-0.990959,-0.235691,0.001004,-0.076912,0.002604,-0.004528,0.002045,346.236328,350.699127,-1.000000,0.000000,0.000000
482149492.642999,0.111938,-0.008911,-1.072174,0.133960,0.012843,-0.000795,0.991042,0.000928,-0.133549,0.000794,0.999917,0.012843,0.133550,-0.012834,0.990959,0.133549,-0.012843,-0.990959,-0.207920,0.000621,-0.074730,0.005043,-0.000973,0.010679,346.236328,350.699127,-1.000000,0.000000,0.000000
482149492.654210,0.161514,-0.012756,-1.059097,0.133960,0.012843,-0.000795,0.991042,0.000928,-0.133549,0.000794,0.999917,0.012843,0.133550,-0.012834,0.990959,0.133549,-0.012843,-0.990959,-0.207920,0.000621,-0.074730,0.005043,-0.000973,0.010679,346.236328,350.699127,-1.000000,0.000000,0.000000
482149492.662912,0.111740,-0.004852,-1.058456,0.133939,0.012918,-0.000742,0.991045,0.000990,-0.133527,0.000742,0.999916,0.012918,0.133529,-0.012901,0.990961,0.133527,-0.012918,-0.990961,-0.148100,-0.012381,-0.075277,0.006292,-0.003315,0.005757,346.236328,350.699127,-1.000000,0.000000,0.000000
482149492.673039,0.177734,-0.023117,-1.075638,0.133924,0.012978,-0.000861,0.991047,0.000880,-0.133513,0.000861,0.999915,0.012978,0.133513,-0.012976,0.990962,0.133513,-0.012978,-0.990962,-0.021574,0.004066,-0.081212,0.000174,0.001135,-0.009037,346.236328,350.699127,-1.000000,0.000000,0.000000
482149492.682227,0.177734,-0.023117,-1.075638,0.133924,0.012978,-0.000861,0.991047,0.000880,-0.133513,0.000861,0.999915,0.012978,0.133513,-0.012976,0.990962,0.133513,-0.012978,-0.990962,-0.021574,0.004066,-0.081212,0.000174,0.001135,-0.009037,346.236328,350.699127,-1.000000,0.000000,0.000000
482149492.692782,0.035904,-0.027191,-1.053146,0.133897,0.012997,-0.000861,0.991050,0.000881,-0.133486,0.000861,0.999915,0.012997,0.133486,-0.012996,0.990966,0.133486,-0.012997,-0.990966,0.028029,0.000241,-0.068132,-0.001096,-0.003399,0.002030,346.236328,350.699127,-1.000000,0.000000,0.000000
482149492.702860,-0.119934,-0.011414,-1.077789,0.133837,0.013126,-0.000874,0.991058,0.000885,-0.133426,0.000874,0.999913,0.013125,0.133426,-0.013124,0.990972,0.133426,-0.013125,-0.990972,0.044308,-0.009992,-0.084666,0.010008,0.000133,0.000855,346.236328,350.699127,-1.000000,0.000000,0.000000
482149492.713635,-0.262924,-0.013382,-1.040588,0.133837,0.013126,-0.000874,0.991058,0.000885,-0.133426,0.000874,0.999913,0.013125,0.133426,-0.013124,0.990972,0.133426,-0.013125,-0.990972,0.044308,-0.009992,-0.084666,0.010008,0.000133,0.000855,346.236328,350.699127,-1.000000,0.000000,0.000000
482149492.722680,-0.140686,-0.009155,-1.094604,0.133860,0.013157,-0.000877,0.991055,0.000887,-0.133449,0.000876,0.999913,0.013157,0.133449,-0.013156,0.990968,0.133449,-0.013157,-0.990968,-0.097545,-0.014035,-0.062178,0.000154,0.000032,-0.002883,346.236328,350.699127,-1.000000,0.000000,0.000000
482149492.733000,-0.107254,-0.012421,-1.044388,0.133923,0.013166,-0.000783,0.991047,0.000982,-0.133511,0.000783,0.999913,0.013166,0.133512,-0.013152,0.990960,0.133511,-0.013166,-0.990960,-0.253445,0.001752,-0.086829,-0.004770,0.004595,-0.005360,346.236328,350.699127,-1.000000,0.000000,0.000000
482149492.743037,-0.055756,-0.002670,-1.068481,0.133924,0.013174,-0.000825,0.991047,0.000942,-0.133512,0.000825,0.999913,0.013174,0.133513,-0.013166,0.990960,0.133512,-0.013174,-0.990960,-0.396436,-0.000208,-0.049629,0.003846,0.001234,-0.000402,346.236328,350.699127,-1.000000,0.000000,0.000000
482149492.753542,0.045471,-0.014389,-1.045242,0.133924,0.013174,-0.000825,0.991047,0.000942,-0.133512,0.000825,0.999913,0.013174,0.133513,-0.013166,0.990960,0.133512,-0.013174,-0.990960,-0.396436,-0.000208,-0.049629,0.003846,0.001234,-0.000402,346.236328,350.699127,-1.000000,0.000000,0.000000
482149492.762350,0.072113,-0.001221,-1.075394,0.133926,0.013267,-0.000875,0.991047,0.000904,-0.133514,0.000875,0.999912,0.013267,0.133514,-0.013265,0.990958,0.133514,-0.013267,-0.990958,-0.240768,0.000846,-0.053430,0.000149,-0.003422,-0.001658,346.236328,350.699127,-1.000000,0.000000,0.000000
482149492.773093,0.068192,-0.010895,-1.048996,0.133932,0.013291,-0.000888,0.991046,0.000894,-0.133520,0.000888,0.999911,0.013291,0.133520,-0.013290,0.990957,0.133520,-0.013291,-0.990957,-0.189276,0.010620,-0.077524,0.001365,0.005877,0.004518,346.236328,350.699127,-1.000000,0.000000,0.000000
482149492.783574,0.068192,-0.010895,-1.048996,0.133932,0.013291,-0.000888,0.991046,0.000894,-0.133520,0.000888,0.999911,0.013291,0.133520,-0.013290,0.990957,0.133520,-0.013291,-0.990957,-0.189276,0.010620,-0.077524,0.001365,0.005877,0.004518,346.236328,350.699127,-1.000000,0.000000,0.000000
482149492.792663,0.069199,-0.006073,-1.068573,0.133889,0.013361,-0.000882,0.991051,0.000910,-0.133477,0.000882,0.999910,0.013361,0.133477,-0.013359,0.990962,0.133477,-0.013361,-0.990962,-0.061364,0.012140,-0.084432,0.008770,-0.004484,0.002073,346.236328,350.699127,-1.000000,0.000000,0.000000
482149492.804214,0.153488,-0.006714,-1.066010,0.133850,0.013355,-0.000897,0.991057,0.000893,-0.133439,0.000897,0.999910,0.013354,0.133439,-0.013354,0.990967,0.133439,-0.013354,-0.990967,-0.065247,0.002459,-0.058029,-0.001081,-0.004596,-0.002896,346.236328,350.699127,-1.000000,0.000000,0.000000
482149492.812263,0.060074,0.002060,-1.065689,0.133850,0.013355,-0.000897,0.991057,0.000893,-0.133439,0.000897,0.999910,0.013354,0.133439,-0.013354,0.990967,0.133439,-0.013354,-0.990967,-0.065247,0.002459,-0.058029,-0.001081,-0.004596,-0.002896,346.236328,350.699127,-1.000000,0.000000,0.000000
482149492.822696,-0.025909,-0.006256,-1.072189,0.133868,0.013396,-0.000881,0.991054,0.000915,-0.133457,0.000881,0.999910,0.013395,0.133457,-0.013393,0.990964,0.133457,-0.013395,-0.990964,-0.064258,0.007322,-0.077609,0.003850,0.001223,-0.001634,346.236328,350.699127,-1.000000,0.000000,0.000000
482149492.844699,-0.242157,0.000839,-1.079636,0.133892,0.013476,-0.000835,0.991051,0.000972,-0.133480,0.000835,0.999909,0.013475,0.133481,-0.013466,0.990960,0.133480,-0.013475,-0.990960,0.020008,0.006762,-0.075050,0.009972,0.000227,0.011934,346.236328,350.699127,-1.000000,0.000000,0.000000
482149492.852815,-0.101028,-0.014755,-1.077652,0.133899,0.013570,-0.000879,0.991050,0.000940,-0.133487,0.000879,0.999908,0.013569,0.133488,-0.013565,0.990958,0.133487,-0.013569,-0.990958,-0.159397,0.007313,-0.081232,0.001384,0.004670,-0.001640,346.236328,350.699127,-1.000000,0.000000,0.000000
482149492.863068,-0.120041,-0.005478,-1.082703,0.133922,0.013557,-0.000894,0.991047,0.000924,-0.133510,0.000894,0.999908,0.013557,0.133510,-0.013555,0.990955,0.133510,-0.013557,-0.990955,-0.297359,0.003257,-0.046979,-0.003558,0.000037,0.000793,346.236328,350.699127,-1.000000,0.000000,0.000000
482149492.873825,0.014511,-0.002930,-1.053284,0.134002,0.013594,-0.000907,0.991036,0.000917,-0.133589,0.000907,0.999907,0.013594,0.133589,-0.013593,0.990944,0.133589,-0.013594,-0.990944,-0.234618,-0.001161,-0.086708,0.001384,0.005824,-0.001638,346.236328,350.699127,-1.000000,0.000000,0.000000
482149492.883357,0.085007,-0.005341,-1.061600,0.134002,0.013594,-0.000907,0.991036,0.000917,-0.133589,0.000907,0.999907,0.013594,0.133589,-0.013593,0.990944,0.133589,-0.013594,-0.990944,-0.234618,-0.001161,-0.086708,0.001384,0.005824,-0.001638,346.236328,350.699127,-1.000000,0.000000,0.000000
482149492.893632,0.085007,-0.005341,-1.061600,0.133936,0.013608,-0.000907,0.991045,0.000918,-0.133523,0.000907,0.999907,0.013608,0.133523,-0.013607,0.990952,0.133523,-0.013608,-0.990952,-0.253564,0.008130,-0.091750,0.002614,-0.010333,-0.001658,346.236328,350.699127,-1.000000,0.000000,0.000000
482149492.904187,0.118774,-0.007965,-1.059387,0.133960,0.013719,-0.000912,0.991042,0.000929,-0.133547,0.000911,0.999905,0.013719,0.133547,-0.013717,0.990947,0.133547,-0.013719,-0.990947,-0.119036,0.010789,-0.062336,0.003858,0.002357,-0.004094,346.236328,350.699127,-1.000000,0.000000,0.000000
482149492.912834,0.118774,-0.007965,-1.059387,0.133960,0.013719,-0.000912,0.991042,0.000929,-0.133547,0.000911,0.999905,0.013719,0.133547,-0.013717,0.990947,0.133547,-0.013719,-0.990947,-0.119036,0.010789,-0.062336,0.003858,0.002357,-0.004094,346.236328,350.699127,-1.000000,0.000000,0.000000
482149492.922876,0.114868,-0.011841,-1.055527,0.133961,0.013755,-0.000878,0.991042,0.000967,-0.133548,0.000878,0.999905,0.013755,0.133548,-0.013749,0.990947,0.133548,-0.013755,-0.990947,-0.048541,0.008414,-0.070653,0.003830,0.000121,0.004520,346.236328,350.699127,-1.000000,0.000000,0.000000
482149492.932895,0.128815,-0.008286,-1.076950,0.133979,0.013803,-0.000808,0.991039,0.001043,-0.133565,0.000808,0.999904,0.013803,0.133567,-0.013787,0.990944,0.133565,-0.013803,-0.990944,-0.014791,0.005838,-0.068443,0.001363,0.002413,0.004512,346.236328,350.699127,-1.000000,0.000000,0.000000
482149492.943102,0.013550,-0.001968,-1.060150,0.133979,0.013803,-0.000808,0.991039,0.001043,-0.133565,0.000808,0.999904,0.013803,0.133567,-0.013787,0.990944,0.133565,-0.013803,-0.990944,-0.014791,0.005838,-0.068443,0.001363,0.002413,0.004512,346.236328,350.699127,-1.000000,0.000000,0.000000
482149492.952608,-0.086517,-0.002090,-1.068710,0.133980,0.013839,-0.000823,0.991039,0.001033,-0.133566,0.000823,0.999904,0.013839,0.133568,-0.013825,0.990943,0.133566,-0.013839,-0.990943,-0.018698,0.001998,-0.064583,0.005078,-0.001067,-0.000401,346.236328,350.699127,-1.000000,0.000000,0.000000
482149492.963143,-0.248199,-0.000885,-1.061050,0.134015,0.013899,-0.000803,0.991035,0.001061,-0.133601,0.000803,0.999903,0.013899,0.133603,-0.013881,0.990938,0.133601,-0.013899,-0.990938,-0.120051,0.011930,-0.069212,-0.002313,0.000014,-0.002895,346.236328,350.699127,-1.000000,0.000000,0.000000
482149492.973721,-0.111023,-0.016418,-1.057159,0.134015,0.013899,-0.000803,0.991035,0.001061,-0.133601,0.000803,0.999903,0.013899,0.133603,-0.013881,0.990938,0.133601,-0.013899,-0.990938,-0.120051,0.011930,-0.069212,-0.002313,0.000014,-0.002895,346.236328,350.699127,-1.000000,0.000000,0.000000
482149492.982766,-0.135956,-0.003204,-1.080826,0.133976,0.013890,-0.000788,0.991040,0.001075,-0.133562,0.000788,0.999903,0.013890,0.133564,-0.013871,0.990943,0.133562,-0.013890,-0.990943,-0.220080,0.011800,-0.077767,-0.001093,-0.005720,0.000794,346.236328,350.699127,-1.000000,0.000000,0.000000
482149492.993032,-0.048721,-0.011612,-1.051788,0.133972,0.013912,-0.000829,0.991040,0.001037,-0.133558,0.000829,0.999903,0.013912,0.133560,-0.013898,0.990943,0.133558,-0.013912,-0.990943,-0.381758,0.013027,-0.070107,0.005077,0.007026,0.000843,346.236328,350.699127,-1.000000,0.000000,0.000000
482149493.004195,0.034363,0.001526,-1.072739,0.133972,0.013912,-0.000829,0.991040,0.001037,-0.133558,0.000829,0.999903,0.013912,0.133560,-0.013898,0.990943,0.133558,-0.013912,-0.990943,-0.381758,0.013027,-0.070107,0.005077,0.007026,0.000843,346.236328,350.699127,-1.000000,0.000000,0.000000
482149493.013182,0.034363,0.001526,-1.072739,0.134001,0.013970,-0.000811,0.991037,0.001063,-0.133587,0.000810,0.999902,0.013970,0.133589,-0.013953,0.990939,0.133587,-0.013970,-0.990939,-0.244610,-0.002449,-0.066221,0.001374,-0.002238,0.000811,346.236328,350.699127,-1.000000,0.000000,0.000000
482149493.024799,0.139557,-0.006393,-1.061203,0.133968,0.014040,-0.000810,0.991041,0.001073,-0.133555,0.000810,0.999901,0.014039,0.133557,-0.014022,0.990942,0.133555,-0.014039,-0.990942,-0.182276,0.002427,-0.060846,0.001366,-0.002217,0.003273,346.236328,350.699127,-1.000000,0.000000,0.000000
482149493.035065,0.230850,-0.011124,-1.057602,0.133968,0.014040,-0.000810,0.991041,0.001073,-0.133555,0.000810,0.999901,0.014039,0.133557,-0.014022,0.990942,0.133555,-0.014039,-0.990942,-0.182276,0.002427,-0.060846,0.001366,-0.002217,0.003273,346.236328,350.699127,-1.000000,0.000000,0.000000
482149493.042764,0.143799,-0.003830,-1.108215,0.133986,0.014081,-0.000783,0.991038,0.001105,-0.133572,0.000783,0.999901,0.014081,0.133575,-0.014059,0.990939,0.133572,-0.014081,-0.990939,-0.099209,0.015606,-0.081800,0.007534,0.003601,0.003310,346.236328,350.699127,-1.000000,0.000000,0.000000
482149493.053039,0.149719,-0.011658,-1.076813,0.133971,0.014142,-0.000757,0.991041,0.001139,-0.133557,0.000757,0.999900,0.014141,0.133560,-0.014116,0.990940,0.133557,-0.014141,-0.990940,0.097293,0.003018,-0.066662,-0.004813,-0.005694,0.006933,346.236328,350.699127,-1.000000,0.000000,0.000000
482149493.063599,0.014679,-0.009872,-1.052307,0.133954,0.014140,-0.000737,0.991043,0.001158,-0.133541,0.000737,0.999900,0.014139,0.133543,-0.014111,0.990942,0.133540,-0.014139,-0.990942,0.097310,0.003016,-0.066659,0.003846,0.001234,-0.000403,346.236328,350.699127,-1.000000,0.000000,0.000000
482149493.073141,-0.117950,-0.015335,-1.064041,0.133954,0.014140,-0.000737,0.991043,0.001158,-0.133541,0.000737,0.999900,0.014139,0.133543,-0.014111,0.990942,0.133540,-0.014139,-0.990942,0.097310,0.003016,-0.066659,0.003846,0.001234,-0.000403,346.236328,350.699127,-1.000000,0.000000,0.000000
482149493.082954,-0.238159,-0.005081,-1.065903,0.133961,0.014226,-0.000654,0.991042,0.001252,-0.133547,0.000654,0.999899,0.014226,0.133551,-0.014185,0.990940,0.133547,-0.014226,-0.990940,0.016172,0.002568,-0.085872,0.007526,0.001312,0.005769,346.236328,350.699127,-1.000000,0.000000,0.000000
482149493.093591,-0.105179,-0.010620,-1.064941,0.133979,0.014253,-0.000691,0.991039,0.001219,-0.133565,0.000691,0.999898,0.014252,0.133569,-0.014217,0.990938,0.133565,-0.014252,-0.990938,-0.118886,0.004380,-0.061370,0.005096,0.004664,-0.005316,346.236328,350.699127,-1.000000,0.000000,0.000000
482149493.103723,-0.091049,-0.016937,-1.076584,0.133979,0.014253,-0.000691,0.991039,0.001219,-0.133565,0.000691,0.999898,0.014252,0.133569,-0.014217,0.990938,0.133565,-0.014252,-0.990938,-0.118886,0.004380,-0.061370,0.005096,0.004664,-0.005316,346.236328,350.699127,-1.000000,0.000000,0.000000
482149493.113050,-0.091049,-0.016937,-1.076584,0.133963,0.014306,-0.000677,0.991041,0.001240,-0.133549,0.000676,0.999897,0.014305,0.133553,-0.014268,0.990939,0.133549,-0.014305,-0.990939,-0.371709,0.009224,-0.074964,0.000122,0.001270,0.006966,346.236328,350.699127,-1.000000,0.000000,0.000000
482149493.122734,-0.074478,-0.012115,-1.050980,0.133987,0.014318,-0.000688,0.991038,0.001231,-0.133572,0.000688,0.999897,0.014317,0.133576,-0.014281,0.990936,0.133572,-0.014317,-0.990936,-0.238751,0.003697,-0.074006,-0.004783,0.001162,-0.001674,346.236328,350.699127,-1.000000,0.000000,0.000000
482149493.133173,-0.016006,-0.006439,-1.071152,0.133987,0.014318,-0.000688,0.991038,0.001231,-0.133572,0.000688,0.999897,0.014317,0.133576,-0.014281,0.990936,0.133572,-0.014317,-0.990936,-0.238751,0.003697,-0.074006,-0.004783,0.001162,-0.001674,346.236328,350.699127,-1.000000,0.000000,0.000000
482149493.142685,0.201187,-0.015472,-1.052933,0.133948,0.014276,-0.000703,0.991043,0.001210,-0.133534,0.000703,0.999898,0.014276,0.133538,-0.014242,0.990941,0.133534,-0.014276,-0.990941,-0.224583,-0.002661,-0.085642,-0.001080,-0.001132,-0.002892,346.236328,350.699127,-1.000000,0.000000,0.000000
482149493.153107,0.178360,-0.006302,-1.081497,0.133915,0.014314,-0.000749,0.991048,0.001169,-0.133502,0.000749,0.999897,0.014314,0.133505,-0.014286,0.990945,0.133502,-0.014314,-0.990945,-0.207980,0.002198,-0.060034,0.003857,-0.001107,-0.004100,346.236328,350.699127,-1.000000,0.000000,0.000000
482149493.162978,0.114517,-0.004715,-1.030029,0.133915,0.014314,-0.000749,0.991048,0.001169,-0.133502,0.000749,0.999897,0.014314,0.133505,-0.014286,0.990945,0.133502,-0.014314,-0.990945,-0.207980,0.002198,-0.060034,0.003857,-0.001107,-0.004100,346.236328,350.699127,-1.000000,0.000000,0.000000
482149493.172824,0.182556,-0.022095,-1.058945,0.133917,0.014387,-0.000766,0.991048,0.001161,-0.133504,0.000766,0.999896,0.014387,0.133506,-0.014360,0.990944,0.133504,-0.014387,-0.990944,0.067684,-0.001086,-0.061989,0.001371,0.001237,0.002047,346.236328,350.699127,-1.000000,0.000000,0.000000
482149493.183085,0.132568,-0.005249,-1.058304,0.133912,0.014408,-0.000755,0.991048,0.001175,-0.133499,0.000755,0.999896,0.014408,0.133502,-0.014380,0.990944,0.133499,-0.014408,-0.990944,0.044861,0.008106,-0.090553,0.009995,-0.002145,0.004543,346.236328,350.699127,-1.000000,0.000000,0.000000
482149493.192950,0.018982,-0.017044,-1.074829,0.133912,0.014408,-0.000755,0.991048,0.001175,-0.133499,0.000755,0.999896,0.014408,0.133502,-0.014380,0.990944,0.133499,-0.014408,-0.990944,0.044861,0.008106,-0.090553,0.009995,-0.002145,0.004543,346.236328,350.699127,-1.000000,0.000000,0.000000
482149493.202798,-0.143616,-0.017883,-1.071091,0.133925,0.014463,-0.000777,0.991047,0.001161,-0.133511,0.000776,0.999895,0.014462,0.133514,-0.014436,0.990942,0.133511,-0.014462,-0.990942,0.049045,-0.007632,-0.068003,0.003838,0.001254,0.002059,346.236328,350.699127,-1.000000,0.000000,0.000000
482149493.213737,-0.108124,-0.014450,-1.053192,0.133881,0.014522,-0.000801,0.991053,0.001145,-0.133468,0.000800,0.999894,0.014521,0.133470,-0.014498,0.990947,0.133468,-0.014521,-0.990947,-0.000899,0.009272,-0.067357,0.008794,-0.002238,-0.005311,346.236328,350.699127,-1.000000,0.000000,0.000000
482149493.225388,-0.105423,-0.003601,-1.053162,0.133866,0.014529,-0.000810,0.991055,0.001136,-0.133452,0.000810,0.999894,0.014529,0.133455,-0.014507,0.990949,0.133452,-0.014529,-0.990949,-0.114470,-0.002515,-0.083880,0.002619,-0.003415,-0.002879,346.236328,350.699127,-1.000000,0.000000,0.000000
482149493.236075,-0.026917,-0.003326,-1.080048,0.133866,0.014529,-0.000810,0.991055,0.001136,-0.133452,0.000810,0.999894,0.014529,0.133455,-0.014507,0.990949,0.133452,-0.014529,-0.990949,-0.114470,-0.002515,-0.083880,0.002619,-0.003415,-0.002879,346.236328,350.699127,-1.000000,0.000000,0.000000
482149493.242408,-0.026917,-0.003326,-1.080048,0.133838,0.014548,-0.000816,0.991058,0.001132,-0.133425,0.000816,0.999894,0.014547,0.133427,-0.014526,0.990952,0.133425,-0.014547,-0.990952,-0.277041,-0.003336,-0.080139,0.003849,-0.002242,-0.001640,346.236328,350.699127,-1.000000,0.000000,0.000000
482149493.253301,0.054489,-0.019531,-1.045166,0.133867,0.014506,-0.000831,0.991054,0.001112,-0.133454,0.000831,0.999894,0.014506,0.133456,-0.014487,0.990949,0.133454,-0.014506,-0.990949,-0.238877,0.010905,-0.062213,-0.007262,0.003485,0.002012,346.236328,350.699127,-1.000000,0.000000,0.000000
482149493.262892,0.053253,0.002090,-1.081436,0.133867,0.014506,-0.000831,0.991054,0.001112,-0.133454,0.000831,0.999894,0.014506,0.133456,-0.014487,0.990949,0.133454,-0.014506,-0.990949,-0.238877,0.010905,-0.062213,-0.007262,0.003485,0.002012,346.236328,350.699127,-1.000000,0.000000,0.000000
482149493.272985,0.212311,-0.026566,-1.044037,0.133868,0.014536,-0.000845,0.991054,0.001102,-0.133455,0.000845,0.999894,0.014536,0.133457,-0.014518,0.990948,0.133455,-0.014536,-0.990948,-0.160371,0.011209,-0.089099,0.003857,0.000047,-0.004099,346.236328,350.699127,-1.000000,0.000000,0.000000
482149493.282975,0.082153,-0.010254,-1.063583,0.133909,0.014656,-0.000833,0.991049,0.001131,-0.133495,0.000833,0.999892,0.014655,0.133497,-0.014635,0.990941,0.133495,-0.014655,-0.990941,-0.080242,0.016746,-0.090495,0.013716,0.002447,-0.001588,346.236328,350.699127,-1.000000,0.000000,0.000000
482149493.293096,0.172302,-0.007996,-1.059006,0.133909,0.014656,-0.000833,0.991049,0.001131,-0.133495,0.000833,0.999892,0.014655,0.133497,-0.014635,0.990941,0.133495,-0.014655,-0.990941,-0.080242,0.016746,-0.090495,0.013716,0.002447,-0.001588,346.236328,350.699127,-1.000000,0.000000,0.000000
482149493.302785,0.075943,0.003677,-1.073410,0.133893,0.014648,-0.000812,0.991051,0.001151,-0.133479,0.000812,0.999892,0.014647,0.133481,-0.014624,0.990943,0.133479,-0.014647,-0.990943,-0.080226,0.016738,-0.090493,-0.004792,-0.002282,0.000782,346.236328,350.699127,-1.000000,0.000000,0.000000
482149493.313502,0.075943,0.003677,-1.073410,0.133893,0.014648,-0.000812,0.991051,0.001151,-0.133479,0.000812,0.999892,0.014647,0.133481,-0.014624,0.990943,0.133479,-0.014647,-0.990943,-0.080226,0.016738,-0.090493,-0.004792,-0.002282,0.000782,346.236328,350.699127,-1.000000,0.000000,0.000000
482149493.322463,-0.016129,-0.005356,-1.057419,0.133861,0.014757,-0.000829,0.991055,0.001148,-0.133447,0.000828,0.999891,0.014757,0.133450,-0.014735,0.990946,0.133447,-0.014757,-0.990946,-0.051294,0.004503,-0.072637,0.007565,-0.001102,-0.006546,346.236328,350.699127,-1.000000,0.000000,0.000000
482149493.332477,-0.204437,-0.009583,-1.048996,0.133896,0.014784,-0.000866,0.991051,0.001115,-0.133482,0.000866,0.999890,0.014783,0.133484,-0.014767,0.990941,0.133482,-0.014783,-0.990941,0.038821,0.006788,-0.068065,0.002625,0.004658,-0.004097,346.236328,350.699127,-1.000000,0.000000,0.000000
482149493.343053,-0.182297,-0.010315,-1.093918,0.133908,0.014748,-0.000888,0.991049,0.001089,-0.133494,0.000888,0.999891,0.014747,0.133495,-0.014734,0.990940,0.133494,-0.014747,-0.990940,-0.149622,0.009391,-0.066479,0.000140,-0.006866,0.000797,346.236328,350.699127,-1.000000,0.000000,0.000000
482149493.353043,-0.126007,-0.010193,-1.063141,0.133908,0.014748,-0.000888,0.991049,0.001089,-0.133494,0.000888,0.999891,0.014747,0.133495,-0.014734,0.990940,0.133494,-0.014747,-0.990940,-0.149622,0.009391,-0.066479,0.000140,-0.006866,0.000797,346.236328,350.699127,-1.000000,0.000000,0.000000
482149493.363664,-0.175766,0.000595,-1.074249,0.133875,0.014720,-0.000925,0.991054,0.001048,-0.133461,0.000925,0.999891,0.014719,0.133462,-0.014711,0.990945,0.133461,-0.014719,-0.990945,-0.337898,0.005137,-0.058051,-0.001058,-0.005814,-0.010286,346.236328,350.699127,-1.000000,0.000000,0.000000
482149493.372944,-0.067535,-0.011276,-1.055847,0.133876,0.014700,-0.000870,0.991053,0.001100,-0.133462,0.000870,0.999892,0.014699,0.133463,-0.014684,0.990945,0.133462,-0.014699,-0.990945,-0.259469,0.004506,-0.072196,-0.001095,0.003529,0.002039,346.236328,350.699127,-1.000000,0.000000,0.000000
482149493.384280,0.035477,-0.007355,-1.059982,0.133876,0.014700,-0.000870,0.991053,0.001100,-0.133462,0.000870,0.999892,0.014699,0.133463,-0.014684,0.990945,0.133462,-0.014699,-0.990945,-0.259469,0.004506,-0.072196,-0.001095,0.003529,0.002039,346.236328,350.699127,-1.000000,0.000000,0.000000
482149493.392884,0.309326,-0.017578,-1.056076,0.133888,0.014726,-0.000866,0.991052,0.001108,-0.133473,0.000866,0.999891,0.014725,0.133475,-0.014709,0.990943,0.133473,-0.014725,-0.990943,-0.259480,0.004533,-0.072198,0.000138,0.002382,0.002043,346.236328,350.699127,-1.000000,0.000000,0.000000
482149493.402994,0.157440,0.000977,-1.092438,0.133917,0.014750,-0.000889,0.991048,0.001088,-0.133503,0.000889,0.999891,0.014749,0.133504,-0.014736,0.990939,0.133503,-0.014749,-0.990939,-0.201038,0.003473,-0.064908,-0.001099,0.004694,0.003272,346.236328,350.699127,-1.000000,0.000000,0.000000
482149493.413668,0.119904,-0.014908,-1.055481,0.133917,0.014750,-0.000889,0.991048,0.001088,-0.133503,0.000889,0.999891,0.014749,0.133504,-0.014736,0.990939,0.133503,-0.014749,-0.990939,-0.201038,0.003473,-0.064908,-0.001099,0.004694,0.003272,346.236328,350.699127,-1.000000,0.000000,0.000000
482149493.424022,0.119904,-0.014908,-1.055481,0.133912,0.014746,-0.000887,0.991049,0.001090,-0.133498,0.000887,0.999891,0.014745,0.133499,-0.014731,0.990939,0.133498,-0.014745,-0.990939,-0.098021,0.007390,-0.069043,0.001395,0.001174,-0.005340,346.236328,350.699127,-1.000000,0.000000,0.000000
482149493.432735,0.101074,-0.009705,-1.075195,0.133873,0.014731,-0.000881,0.991054,0.001093,-0.133459,0.000881,0.999891,0.014730,0.133461,-0.014716,0.990945,0.133459,-0.014730,-0.990945,0.023981,0.015707,-0.101493,0.001362,0.000103,0.004507,346.236328,350.699127,-1.000000,0.000000,0.000000
482149493.444947,-0.097229,-0.011749,-1.062927,0.133862,0.014692,-0.000868,0.991055,0.001100,-0.133449,0.000868,0.999892,0.014691,0.133450,-0.014676,0.990947,0.133449,-0.014691,-0.990947,-0.013545,-0.000217,-0.064534,-0.004785,-0.003458,-0.001682,346.236328,350.699127,-1.000000,0.000000,0.000000
482149493.452880,-0.097229,-0.011749,-1.062927,0.133862,0.014692,-0.000868,0.991055,0.001100,-0.133449,0.000868,0.999892,0.014691,0.133450,-0.014676,0.990947,0.133449,-0.014691,-0.990947,-0.013545,-0.000217,-0.064534,-0.004785,-0.003458,-0.001682,346.236328,350.699127,-1.000000,0.000000,0.000000
482149493.462980,-0.223129,-0.012299,-1.062851,0.133803,0.014804,-0.000909,0.991063,0.001074,-0.133389,0.000909,0.999890,0.014804,0.133391,-0.014793,0.990953,0.133389,-0.014804,-0.990953,-0.032315,0.005099,-0.084242,0.011248,-0.003344,-0.001609,346.236328,350.699127,-1.000000,0.000000,0.000000
482149493.473072,-0.124115,-0.009201,-1.056259,0.133792,0.014813,-0.000896,0.991065,0.001088,-0.133379,0.000896,0.999890,0.014813,0.133380,-0.014800,0.990954,0.133379,-0.014813,-0.990954,-0.139620,0.008328,-0.058560,-0.002333,0.000066,0.003259,346.236328,350.699127,-1.000000,0.000000,0.000000
482149493.483389,-0.096329,-0.007797,-1.061935,0.133792,0.014813,-0.000896,0.991065,0.001088,-0.133379,0.000896,0.999890,0.014813,0.133380,-0.014800,0.990954,0.133379,-0.014813,-0.990954,-0.139620,0.008328,-0.058560,-0.002333,0.000066,0.003259,346.236328,350.699127,-1.000000,0.000000,0.000000
482149493.492365,-0.056290,-0.022522,-1.068512,0.133833,0.014876,-0.000901,0.991059,0.001092,-0.133419,0.000901,0.999889,0.014875,0.133421,-0.014863,0.990948,0.133419,-0.014875,-0.990948,-0.356548,0.002577,-0.071903,0.003839,0.004718,0.002063,346.236328,350.699127,-1.000000,0.000000,0.000000
482149493.503001,0.039413,-0.007431,-1.057999,0.133828,0.014898,-0.000926,0.991060,0.001070,-0.133414,0.000926,0.999889,0.014898,0.133415,-0.014888,0.990948,0.133414,-0.014898,-0.990948,-0.257529,0.005697,-0.065311,0.000145,-0.002258,-0.000427,346.236328,350.699127,-1.000000,0.000000,0.000000
482149493.513012,0.144608,-0.007538,-1.070969,0.133828,0.014898,-0.000926,0.991060,0.001070,-0.133414,0.000926,0.999889,0.014898,0.133415,-0.014888,0.990948,0.133414,-0.014898,-0.990948,-0.257529,0.005697,-0.065311,0.000145,-0.002258,-0.000427,346.236328,350.699127,-1.000000,0.000000,0.000000
482149493.522770,0.252609,-0.004654,-1.069214,0.133790,0.014877,-0.000877,0.991065,0.001115,-0.133376,0.000877,0.999889,0.014877,0.133378,-0.014861,0.990954,0.133376,-0.014877,-0.990954,-0.189666,-0.007645,-0.077558,-0.001073,-0.001153,-0.005355,346.236328,350.699127,-1.000000,0.000000,0.000000
482149493.534771,0.150345,0.002228,-1.074829,0.133875,0.014903,-0.000879,0.991054,0.001118,-0.133460,0.000878,0.999889,0.014902,0.133462,-0.014886,0.990942,0.133460,-0.014902,-0.990942,-0.094047,0.007471,-0.067057,0.003836,0.009348,0.003301,346.236328,350.699127,-1.000000,0.000000,0.000000
482149493.542459,0.150345,0.002228,-1.074829,0.133875,0.014903,-0.000879,0.991054,0.001118,-0.133460,0.000878,0.999889,0.014902,0.133462,-0.014886,0.990942,0.133460,-0.014902,-0.990942,-0.094047,0.007471,-0.067057,0.003836,0.009348,0.003301,346.236328,350.699127,-1.000000,0.000000,0.000000
482149493.552757,0.195374,-0.016434,-1.065720,0.133904,0.014979,-0.000824,0.991050,0.001183,-0.133489,0.000824,0.999887,0.014979,0.133492,-0.014955,0.990937,0.133489,-0.014979,-0.990937,0.011118,0.007441,-0.080032,0.000155,0.005805,-0.002876,346.236328,350.699127,-1.000000,0.000000,0.000000
482149493.562886,0.163406,-0.012711,-1.047318,0.133893,0.015010,-0.000784,0.991051,0.001226,-0.133478,0.000784,0.999887,0.015009,0.133482,-0.014980,0.990938,0.133478,-0.015009,-0.990938,0.119131,0.010356,-0.078276,0.006299,-0.003337,0.003292,346.236328,350.699127,-1.000000,0.000000,0.000000
482149493.575643,0.005951,-0.011810,-1.070999,0.133893,0.015010,-0.000784,0.991051,0.001226,-0.133478,0.000784,0.999887,0.015009,0.133482,-0.014980,0.990938,0.133478,-0.015009,-0.990938,0.119131,0.010356,-0.078276,0.006299,-0.003337,0.003292,346.236328,350.699127,-1.000000,0.000000,0.000000
482149493.582870,-0.268814,-0.008438,-1.064163,0.133871,0.014975,-0.000703,0.991054,0.001301,-0.133456,0.000703,0.999888,0.014975,0.133461,-0.014934,0.990942,0.133456,-0.014975,-0.990942,0.061917,-0.001459,-0.074778,-0.002346,-0.001058,0.006950,346.236328,350.699127,-1.000000,0.000000,0.000000
482149493.592985,-0.125015,-0.007339,-1.074875,0.133871,0.014943,-0.000685,0.991054,0.001315,-0.133457,0.000685,0.999888,0.014942,0.133461,-0.014900,0.990942,0.133457,-0.014942,-0.990942,0.029950,0.002231,-0.056375,-0.003563,0.001201,0.002024,346.236328,350.699127,-1.000000,0.000000,0.000000
482149493.603035,-0.100357,-0.010559,-1.042374,0.133945,0.015004,-0.000653,0.991044,0.001356,-0.133530,0.000653,0.999887,0.015004,0.133535,-0.014956,0.990931,0.133530,-0.015004,-0.990931,-0.402344,0.006565,-0.073232,0.002596,-0.001043,0.004510,346.236328,350.699127,-1.000000,0.000000,0.000000
482149493.613167,-0.077469,-0.005295,-1.076477,0.133945,0.015004,-0.000653,0.991044,0.001356,-0.133530,0.000653,0.999887,0.015004,0.133535,-0.014956,0.990931,0.133530,-0.015004,-0.990931,-0.402344,0.006565,-0.073232,0.002596,-0.001043,0.004510,346.236328,350.699127,-1.000000,0.000000,0.000000
482149493.622120,-0.010773,-0.023285,-1.050522,0.133918,0.015051,-0.000627,0.991047,0.001388,-0.133503,0.000627,0.999887,0.015051,0.133509,-0.015000,0.990934,0.133503,-0.015051,-0.990934,-0.258518,0.007711,-0.083941,0.003825,0.000130,0.005749,346.236328,350.699127,-1.000000,0.000000,0.000000
482149493.633619,0.066315,-0.004181,-1.086227,0.133981,0.015071,-0.000590,0.991039,0.001429,-0.133565,0.000590,0.999886,0.015071,0.133571,-0.015014,0.990925,0.133565,-0.015071,-0.990925,-0.233922,0.004511,-0.051448,0.001366,0.000092,0.003275,346.236328,350.699127,-1.000000,0.000000,0.000000
482149493.643706,0.066315,-0.004181,-1.086227,0.133981,0.015071,-0.000590,0.991039,0.001429,-0.133565,0.000590,0.999886,0.015071,0.133571,-0.015014,0.990925,0.133565,-0.015071,-0.990925,-0.233922,0.004511,-0.051448,0.001366,0.000092,0.003275,346.236328,350.699127,-1.000000,0.000000,0.000000
482149493.652814,0.195358,-0.016418,-1.063751,0.133976,0.015086,-0.000626,0.991040,0.001395,-0.133560,0.000626,0.999886,0.015085,0.133566,-0.015034,0.990926,0.133560,-0.015085,-0.990926,-0.211029,0.009791,-0.085551,0.002633,0.003481,-0.006562,346.236328,350.699127,-1.000000,0.000000,0.000000
482149493.663008,0.111771,-0.009720,-1.046707,0.133971,0.015072,-0.000651,0.991040,0.001368,-0.133556,0.000650,0.999886,0.015072,0.133561,-0.015024,0.990927,0.133556,-0.015072,-0.990927,-0.067241,0.010891,-0.095301,0.003756,-0.001051,0.004942,346.236328,350.699127,-1.000000,0.000000,0.000000
482149493.672831,0.190384,-0.019241,-1.053009,0.133971,0.015072,-0.000651,0.991040,0.001368,-0.133556,0.000650,0.999886,0.015072,0.133561,-0.015024,0.990927,0.133556,-0.015072,-0.990927,-0.067241,0.010891,-0.095301,0.003756,-0.001051,0.004942,346.236328,350.699127,-1.000000,0.000000,0.000000
482149493.682680,0.144577,-0.007507,-1.067047,0.133966,0.015108,-0.000613,0.991041,0.001410,-0.133550,0.000613,0.999886,0.015108,0.133556,-0.015054,0.990927,0.133550,-0.015108,-0.990927,0.061808,-0.001311,-0.072824,0.000065,0.001211,0.002466,346.236328,350.699127,-1.000000,0.000000,0.000000
482149493.693145,0.029694,-0.013214,-1.063965,0.133911,0.015192,-0.000588,0.991048,0.001446,-0.133496,0.000588,0.999884,0.015191,0.133502,-0.015133,0.990933,0.133496,-0.015191,-0.990933,0.056888,-0.004050,-0.062076,0.002551,-0.002289,-0.003684,346.236328,350.699127,-1.000000,0.000000,0.000000
482149493.704826,-0.158646,-0.013550,-1.065323,0.133911,0.015192,-0.000588,0.991048,0.001446,-0.133496,0.000588,0.999884,0.015191,0.133502,-0.015133,0.990933,0.133496,-0.015191,-0.990933,0.056888,-0.004050,-0.062076,0.002551,-0.002289,-0.003684,346.236328,350.699127,-1.000000,0.000000,0.000000
482149493.712867,-0.299637,-0.004837,-1.062424,0.133933,0.015178,-0.000562,0.991045,0.001470,-0.133518,0.000562,0.999885,0.015177,0.133525,-0.015116,0.990930,0.133518,-0.015177,-0.990930,0.011059,0.007670,-0.076117,0.002524,0.002404,0.004941,346.236328,350.699127,-1.000000,0.000000,0.000000
482149493.723074,-0.147934,-0.013565,-1.036819,0.133956,0.015196,-0.000522,0.991042,0.001512,-0.133541,0.000522,0.999884,0.015196,0.133548,-0.015129,0.990927,0.133541,-0.015196,-0.990927,-0.103847,0.001982,-0.073038,0.002529,0.004703,0.003714,346.236328,350.699127,-1.000000,0.000000,0.000000
482149493.733620,-0.120224,-0.002411,-1.068954,0.133956,0.015196,-0.000522,0.991042,0.001512,-0.133541,0.000522,0.999884,0.015196,0.133548,-0.015129,0.990927,0.133541,-0.015196,-0.990927,-0.103847,0.001982,-0.073038,0.002529,0.004703,0.003714,346.236328,350.699127,-1.000000,0.000000,0.000000
482149493.743280,-0.033630,-0.015030,-1.070297,0.133974,0.015206,-0.000547,0.991040,0.001489,-0.133558,0.000547,0.999884,0.015205,0.133565,-0.015142,0.990924,0.133558,-0.015205,-0.990924,-0.292204,0.001655,-0.074399,-0.001150,-0.002315,-0.003701,346.236328,350.699127,-1.000000,0.000000,0.000000
482149493.753752,-0.033630,-0.015030,-1.070297,0.133923,0.015200,-0.000462,0.991046,0.001572,-0.133508,0.000462,0.999884,0.015200,0.133516,-0.015125,0.990931,0.133508,-0.015200,-0.990931,-0.281442,0.001635,-0.045888,-0.003628,-0.002301,-0.000019,346.236328,350.699127,-1.000000,0.000000,0.000000
482149493.764936,0.209229,-0.019608,-1.052872,0.133884,0.015185,-0.000490,0.991052,0.001541,-0.133469,0.000490,0.999885,0.015185,0.133477,-0.015114,0.990937,0.133469,-0.015185,-0.990937,-0.253693,0.012774,-0.078018,0.003792,-0.003455,-0.006142,346.236328,350.699127,-1.000000,0.000000,0.000000
482149493.772794,0.209229,-0.019608,-1.052872,0.133884,0.015185,-0.000490,0.991052,0.001541,-0.133469,0.000490,0.999885,0.015185,0.133477,-0.015114,0.990937,0.133469,-0.015185,-0.990937,-0.253693,0.012774,-0.078018,0.003792,-0.003455,-0.006142,346.236328,350.699127,-1.000000,0.000000,0.000000
482149493.782794,0.093201,-0.011566,-1.078201,0.133867,0.015154,-0.000414,0.991054,0.001613,-0.133453,0.000414,0.999885,0.015154,0.133462,-0.015073,0.990939,0.133453,-0.015154,-0.990939,-0.032455,0.006471,-0.077405,0.000050,0.004717,0.007396,346.236328,350.699127,-1.000000,0.000000,0.000000
482149493.793406,0.087036,-0.010254,-1.050812,0.133834,0.015169,-0.000355,0.991058,0.001672,-0.133419,0.000355,0.999885,0.015168,0.133429,-0.015080,0.990944,0.133419,-0.015168,-0.990944,-0.032421,0.006486,-0.077400,0.001285,-0.001059,0.006161,346.236328,350.699127,-1.000000,0.000000,0.000000
482149493.802979,0.146530,-0.007523,-1.063110,0.133834,0.015169,-0.000355,0.991058,0.001672,-0.133419,0.000355,0.999885,0.015168,0.133429,-0.015080,0.990944,0.133419,-0.015168,-0.990944,-0.032421,0.006486,-0.077400,0.001285,-0.001059,0.006161,346.236328,350.699127,-1.000000,0.000000,0.000000
482149493.812328,0.061874,0.005112,-1.050980,0.133934,0.015161,-0.000239,0.991045,0.001787,-0.133519,0.000239,0.999885,0.015160,0.133531,-0.015056,0.990930,0.133519,-0.015160,-0.990930,-0.040318,0.003594,-0.087271,-0.001204,0.009317,0.006174,346.236328,350.699127,-1.000000,0.000000,0.000000
482149493.822453,-0.011093,-0.006485,-1.063248,0.133941,0.015144,-0.000279,0.991044,0.001746,-0.133525,0.000279,0.999885,0.015143,0.133536,-0.015045,0.990930,0.133525,-0.015143,-0.990930,-0.046489,0.004889,-0.059882,0.000071,-0.000027,-0.007376,346.236328,350.699127,-1.000000,0.000000,0.000000
482149493.839024,-0.180588,-0.010101,-1.055695,0.133842,0.015254,-0.000372,0.991057,0.001667,-0.133427,0.000372,0.999884,0.015253,0.133437,-0.015166,0.990941,0.133427,-0.015253,-0.990941,-0.071553,0.020365,-0.060038,0.009919,-0.009153,-0.002422,346.236328,350.699127,-1.000000,0.000000,0.000000
482149493.841943,-0.124802,-0.016281,-1.074875,0.133842,0.015254,-0.000372,0.991057,0.001667,-0.133427,0.000372,0.999884,0.015253,0.133437,-0.015166,0.990941,0.133427,-0.015253,-0.990941,-0.071553,0.020365,-0.060038,0.009919,-0.009153,-0.002422,346.236328,350.699127,-1.000000,0.000000,0.000000
482149493.852955,-0.153961,0.000183,-1.073120,0.133848,0.015252,-0.000341,0.991056,0.001697,-0.133433,0.000341,0.999884,0.015251,0.133443,-0.015161,0.990941,0.133433,-0.015251,-0.990941,-0.144526,0.008767,-0.072307,-0.003685,0.001248,0.009843,346.236328,350.699127,-1.000000,0.000000,0.000000
482149493.865350,-0.041916,-0.007751,-1.047821,0.133848,0.015252,-0.000341,0.991056,0.001697,-0.133433,0.000341,0.999884,0.015251,0.133443,-0.015161,0.990941,0.133433,-0.015251,-0.990941,-0.144526,0.008767,-0.072307,-0.003685,0.001248,0.009843,346.236328,350.699127,-1.000000,0.000000,0.000000
482149493.875206,0.053192,-0.003693,-1.053986,0.133831,0.015237,-0.000279,0.991059,0.001757,-0.133416,0.000279,0.999884,0.015236,0.133427,-0.015137,0.990943,0.133416,-0.015236,-0.990943,-0.258218,-0.001045,-0.083932,-0.001190,0.002347,0.001239,346.236328,350.699127,-1.000000,0.000000,0.000000
482149493.885195,0.053192,-0.003693,-1.053986,0.133859,0.015268,-0.000277,0.991055,0.001763,-0.133444,0.000277,0.999883,0.015267,0.133456,-0.015168,0.990939,0.133444,-0.015267,-0.990939,-0.258246,-0.001014,-0.083936,0.003735,0.003558,0.003725,346.236328,350.699127,-1.000000,0.000000,0.000000
482149493.892659,0.147446,-0.003601,-1.065048,0.133859,0.015268,-0.000277,0.991055,0.001763,-0.133444,0.000277,0.999883,0.015267,0.133456,-0.015168,0.990939,0.133444,-0.015267,-0.990939,-0.258246,-0.001014,-0.083936,0.003735,0.003558,0.003725,346.236328,350.699127,-1.000000,0.000000,0.000000
482149493.902704,0.252960,-0.022461,-1.057465,0.133933,0.015269,-0.000276,0.991045,0.001765,-0.133517,0.000276,0.999883,0.015268,0.133529,-0.015169,0.990929,0.133517,-0.015268,-0.990929,-0.175433,0.007517,-0.056892,-0.002402,0.006905,-0.004915,346.236328,350.699127,-1.000000,0.000000,0.000000
482149493.913066,0.154465,-0.002838,-1.078735,0.133983,0.015235,-0.000218,0.991038,0.001819,-0.133567,0.000218,0.999884,0.015234,0.133579,-0.015127,0.990923,0.133567,-0.015234,-0.990923,-0.080375,0.011542,-0.063063,-0.004909,0.004682,0.007381,346.236328,350.699127,-1.000000,0.000000,0.000000
482149493.923798,0.087189,-0.006546,-1.086075,0.133826,0.015242,-0.000080,0.991059,0.001955,-0.133411,0.000080,0.999884,0.015241,0.133425,-0.015115,0.990944,0.133411,-0.015241,-0.990944,0.119549,-0.007220,-0.066521,0.002495,-0.006833,0.004934,346.236328,350.699127,-1.000000,0.000000,0.000000
482149493.933006,-0.002319,-0.007462,-1.038712,0.133826,0.015242,-0.000080,0.991059,0.001955,-0.133411,0.000080,0.999884,0.015241,0.133425,-0.015115,0.990944,0.133411,-0.015241,-0.990944,0.119549,-0.007220,-0.066521,0.002495,-0.006833,0.004934,346.236328,350.699127,-1.000000,0.000000,0.000000
482149493.943729,-0.099319,-0.006744,-1.064896,0.133799,0.015347,-0.000063,0.991062,0.001985,-0.133384,0.000063,0.999882,0.015347,0.133399,-0.015218,0.990946,0.133384,-0.015347,-0.990946,0.021081,0.012508,-0.087790,0.014837,-0.003302,0.002534,346.236328,350.699127,-1.000000,0.000000,0.000000
482149493.954061,-0.099319,-0.006744,-1.064896,0.133799,0.015347,-0.000063,0.991062,0.001985,-0.133384,0.000063,0.999882,0.015347,0.133399,-0.015218,0.990946,0.133384,-0.015347,-0.990946,0.021081,0.012508,-0.087790,0.014837,-0.003302,0.002534,346.236328,350.699127,-1.000000,0.000000,0.000000
482149493.964477,-0.211349,-0.007553,-1.061783,0.133783,0.015332,-0.000091,0.991065,0.001955,-0.133368,0.000091,0.999882,0.015332,0.133383,-0.015207,0.990948,0.133368,-0.015332,-0.990948,-0.046180,0.008786,-0.095127,0.003727,0.000114,0.006182,346.236328,350.699127,-1.000000,0.000000,0.000000
482149493.972681,-0.116180,-0.011276,-1.047379,0.133799,0.015341,-0.000026,0.991062,0.002021,-0.133385,0.000026,0.999882,0.015340,0.133400,-0.015207,0.990946,0.133385,-0.015340,-0.990946,-0.135704,0.007879,-0.047766,-0.002472,0.000061,0.004919,346.236328,350.699127,-1.000000,0.000000,0.000000
482149493.982854,-0.106003,-0.015610,-1.068863,0.133806,0.015362,-0.000004,0.991061,0.002045,-0.133391,0.000004,0.999882,0.015362,0.133407,-0.015225,0.990944,0.133391,-0.015362,-0.990944,-0.344741,0.007808,-0.070838,0.001236,-0.001088,0.002471,346.236328,350.699127,-1.000000,0.000000,0.000000
482149493.993171,-0.121048,-0.008347,-1.067993,0.133806,0.015362,-0.000004,0.991061,0.002045,-0.133391,0.000004,0.999882,0.015362,0.133407,-0.015225,0.990944,0.133391,-0.015362,-0.990944,-0.344741,0.007808,-0.070838,0.001236,-0.001088,0.002471,346.236328,350.699127,-1.000000,0.000000,0.000000
482149494.002910,-0.052277,-0.022629,-1.072403,0.133778,0.015350,0.000040,0.991065,0.002086,-0.133363,-0.000040,0.999882,0.015349,0.133379,-0.015207,0.990948,0.133363,-0.015349,-0.990948,-0.249544,0.004073,-0.056430,-0.002477,-0.003393,0.006144,346.236328,350.699127,-1.000000,0.000000,0.000000
482149494.013560,0.041183,0.000504,-1.054077,0.133762,0.015355,0.000033,0.991067,0.002080,-0.133347,-0.000033,0.999882,0.015355,0.133363,-0.015213,0.990950,0.133347,-0.015355,-0.990950,-0.254395,0.007008,-0.077043,-0.002464,0.000040,0.002456,346.236328,350.699127,-1.000000,0.000000,0.000000
482149494.022899,0.284317,-0.008179,-1.057220,0.133762,0.015355,0.000033,0.991067,0.002080,-0.133347,-0.000033,0.999882,0.015355,0.133363,-0.015213,0.990950,0.133347,-0.015355,-0.990950,-0.254395,0.007008,-0.077043,-0.002464,0.000040,0.002456,346.236328,350.699127,-1.000000,0.000000,0.000000
482149494.032800,0.146317,0.002365,-1.066055,0.133728,0.015371,0.000013,0.991072,0.002062,-0.133314,-0.000013,0.999882,0.015370,0.133330,-0.015231,0.990955,0.133314,-0.015370,-0.990955,-0.185591,-0.007259,-0.081448,0.003718,-0.003422,-0.002445,346.236328,350.699127,-1.000000,0.000000,0.000000
482149494.042886,0.172546,-0.016006,-1.065887,0.133797,0.015427,0.000024,0.991062,0.002081,-0.133382,-0.000024,0.999881,0.015426,0.133398,-0.015285,0.990945,0.133382,-0.015426,-0.990945,-0.092199,0.015930,-0.063133,0.002466,0.003550,0.003715,346.236328,350.699127,-1.000000,0.000000,0.000000
482149494.054345,0.092896,-0.011276,-1.036072,0.133797,0.015427,0.000024,0.991062,0.002081,-0.133382,-0.000024,0.999881,0.015426,0.133398,-0.015285,0.990945,0.133382,-0.015426,-0.990945,-0.092199,0.015930,-0.063133,0.002466,0.003550,0.003715,346.236328,350.699127,-1.000000,0.000000,0.000000
482149494.062808,0.010956,-0.011978,-1.080765,0.133792,0.015459,0.000038,0.991063,0.002099,-0.133377,-0.000038,0.999880,0.015459,0.133394,-0.015315,0.990945,0.133377,-0.015459,-0.990945,0.150940,0.007280,-0.066276,0.004940,0.000082,0.001259,346.236328,350.699127,-1.000000,0.000000,0.000000
482149494.073459,0.010956,-0.011978,-1.080765,0.133759,0.015513,0.000031,0.991067,0.002099,-0.133345,-0.000031,0.999880,0.015512,0.133361,-0.015370,0.990948,0.133345,-0.015512,-0.990948,0.039202,-0.000494,-0.074939,0.003698,-0.003370,0.003710,346.236328,350.699127,-1.000000,0.000000,0.000000
482149494.085036,-0.100052,-0.019592,-1.055115,0.133759,0.015513,0.000031,0.991067,0.002099,-0.133345,-0.000031,0.999880,0.015512,0.133361,-0.015370,0.990948,0.133345,-0.015512,-0.990948,0.039202,-0.000494,-0.074939,0.003698,-0.003370,0.003710,346.236328,350.699127,-1.000000,0.000000,0.000000
482149494.092821,-0.278702,-0.000519,-1.094589,0.133720,0.015509,0.000043,0.991073,0.002111,-0.133306,-0.000043,0.999880,0.015508,0.133323,-0.015364,0.990954,0.133306,-0.015508,-0.990954,-0.040411,0.004232,-0.045118,-0.001220,-0.003447,-0.001237,346.236328,350.699127,-1.000000,0.000000,0.000000
482149494.103004,-0.136169,-0.004913,-1.044586,0.133738,0.015527,0.000041,0.991070,0.002111,-0.133324,-0.000041,0.999879,0.015526,0.133340,-0.015382,0.990951,0.133324,-0.015526,-0.990951,-0.233375,-0.004066,-0.064164,-0.003709,0.001217,0.006145,346.236328,350.699127,-1.000000,0.000000,0.000000
482149494.113786,-0.068420,-0.009399,-1.075470,0.133845,0.015505,0.000062,0.991056,0.002131,-0.133429,-0.000062,0.999880,0.015505,0.133446,-0.015358,0.990937,0.133429,-0.015505,-0.990937,-0.233481,-0.004088,-0.064178,-0.003678,0.013846,-0.002452,346.236328,350.699127,-1.000000,0.000000,0.000000
482149494.122853,0.003052,-0.022507,-1.044556,0.133845,0.015505,0.000062,0.991056,0.002131,-0.133429,-0.000062,0.999880,0.015505,0.133446,-0.015358,0.990937,0.133429,-0.015505,-0.990937,-0.233481,-0.004088,-0.064178,-0.003678,0.013846,-0.002452,346.236328,350.699127,-1.000000,0.000000,0.000000
482149494.133169,0.074265,-0.004349,-1.088120,0.133726,0.015466,0.000176,0.991072,0.002236,-0.133312,-0.000176,0.999880,0.015465,0.133331,-0.015304,0.990953,0.133312,-0.015465,-0.990953,-0.269481,0.010552,-0.053633,0.001238,-0.005718,0.001233,346.236328,350.699127,-1.000000,0.000000,0.000000
482149494.143960,0.184265,-0.013153,-1.052078,0.133726,0.015466,0.000176,0.991072,0.002236,-0.133312,-0.000176,0.999880,0.015465,0.133331,-0.015304,0.990953,0.133312,-0.015465,-0.990953,-0.269481,0.010552,-0.053633,0.001238,-0.005718,0.001233,346.236328,350.699127,-1.000000,0.000000,0.000000
482149494.152757,0.136780,-0.011353,-1.071030,0.133704,0.015436,0.000132,0.991075,0.002188,-0.133290,-0.000132,0.999881,0.015436,0.133308,-0.015280,0.990957,0.133290,-0.015436,-0.990957,-0.201711,0.006036,-0.084513,-0.003661,-0.000063,-0.008629,346.236328,350.699127,-1.000000,0.000000,0.000000
482149494.163004,0.136780,-0.011353,-1.071030,0.133687,0.015353,0.000143,0.991077,0.002188,-0.133274,-0.000142,0.999882,0.015352,0.133292,-0.015196,0.990960,0.133274,-0.015352,-0.990960,-0.059009,0.011004,-0.097159,-0.003673,-0.000032,-0.004936,346.236328,350.699127,-1.000000,0.000000,0.000000
482149494.172781,0.123581,-0.006943,-1.042709,0.133756,0.015396,0.000101,0.991068,0.002153,-0.133341,-0.000101,0.999882,0.015396,0.133359,-0.015245,0.990951,0.133341,-0.015396,-0.990951,0.050924,0.002242,-0.061128,0.003712,0.005837,0.000031,346.236328,350.699127,-1.000000,0.000000,0.000000
482149494.182892,0.152359,0.001205,-1.073853,0.133756,0.015396,0.000101,0.991068,0.002153,-0.133341,-0.000101,0.999882,0.015396,0.133359,-0.015245,0.990951,0.133341,-0.015396,-0.990951,0.050924,0.002242,-0.061128,0.003712,0.005837,0.000031,346.236328,350.699127,-1.000000,0.000000,0.000000
482149494.192672,0.030746,-0.014252,-1.067886,0.133723,0.015393,0.000077,0.991072,0.002129,-0.133309,-0.000077,0.999882,0.015393,0.133326,-0.015245,0.990955,0.133309,-0.015393,-0.990955,0.003471,0.004040,-0.080075,0.000014,-0.002284,-0.001230,346.236328,350.699127,-1.000000,0.000000,0.000000
482149494.203065,-0.155579,-0.012711,-1.076096,0.133763,0.015422,0.000061,0.991067,0.002118,-0.133349,-0.000061,0.999881,0.015421,0.133365,-0.015275,0.990949,0.133349,-0.015421,-0.990949,-0.009768,0.008478,-0.051760,0.006187,0.008142,-0.002416,346.236328,350.699127,-1.000000,0.000000,0.000000
482149494.213151,-0.277908,-0.006180,-1.047577,0.133763,0.015422,0.000061,0.991067,0.002118,-0.133349,-0.000061,0.999881,0.015421,0.133365,-0.015275,0.990949,0.133349,-0.015421,-0.990949,-0.009768,0.008478,-0.051760,0.006187,0.008142,-0.002416,346.236328,350.699127,-1.000000,0.000000,0.000000
482149494.222808,-0.154816,-0.014465,-1.040802,0.133708,0.015487,0.000053,0.991074,0.002117,-0.133294,-0.000053,0.999880,0.015487,0.133311,-0.015341,0.990956,0.133294,-0.015487,-0.990956,-0.102548,0.001235,-0.076931,0.006169,-0.002209,0.002492,346.236328,350.699127,-1.000000,0.000000,0.000000
482149494.233040,-0.139847,-0.009033,-1.074982,0.133742,0.015519,0.000109,0.991070,0.002178,-0.133327,-0.000109,0.999880,0.015518,0.133345,-0.015365,0.990951,0.133327,-0.015518,-0.990951,-0.288906,0.002808,-0.085145,0.001232,0.002386,0.003707,346.236328,350.699127,-1.000000,0.000000,0.000000
482149494.243220,-0.029892,-0.008072,-1.062439,0.133742,0.015519,0.000109,0.991070,0.002178,-0.133327,-0.000109,0.999880,0.015518,0.133345,-0.015365,0.990951,0.133327,-0.015518,-0.990951,-0.288906,0.002808,-0.085145,0.001232,0.002386,0.003707,346.236328,350.699127,-1.000000,0.000000,0.000000
482149494.252817,0.112808,-0.002991,-1.074142,0.133777,0.015604,0.000068,0.991065,0.002149,-0.133362,-0.000068,0.999878,0.015604,0.133380,-0.015455,0.990945,0.133362,-0.015604,-0.990945,-0.288178,0.001138,-0.049858,0.003719,0.003506,-0.002435,346.236328,350.699127,-1.000000,0.000000,0.000000
482149494.262066,0.112808,-0.002991,-1.074142,0.133800,0.015629,0.000113,0.991062,0.002197,-0.133385,-0.000113,0.999878,0.015628,0.133403,-0.015473,0.990941,0.133385,-0.015628,-0.990941,-0.273232,0.006595,-0.084041,0.002462,0.001251,0.004942,346.236328,350.699127,-1.000000,0.000000,0.000000
482149494.275431,0.247772,-0.013412,-1.057495,0.133800,0.015629,0.000113,0.991062,0.002197,-0.133385,-0.000113,0.999878,0.015628,0.133403,-0.015473,0.990941,0.133385,-0.015628,-0.990941,-0.273232,0.006595,-0.084041,0.002462,0.001251,0.004942,346.236328,350.699127,-1.000000,0.000000,0.000000
482149494.282747,0.108063,-0.013779,-1.069275,0.133745,0.015680,0.000089,0.991069,0.002179,-0.133330,-0.000089,0.999877,0.015679,0.133348,-0.015527,0.990948,0.133330,-0.015679,-0.990948,-0.163222,0.007607,-0.071491,0.000005,-0.006882,0.001225,346.236328,350.699127,-1.000000,0.000000,0.000000
482149494.292962,0.078384,-0.014236,-1.074402,0.133768,0.015699,0.000098,0.991066,0.002191,-0.133353,-0.000098,0.999877,0.015699,0.133371,-0.015545,0.990944,0.133353,-0.015699,-0.990944,-0.020545,0.012708,-0.083198,0.007411,0.002398,0.000042,346.236328,350.699127,-1.000000,0.000000,0.000000
482149494.303646,0.146530,-0.010422,-1.052353,0.133770,0.015800,0.000031,0.991066,0.002138,-0.133355,-0.000031,0.999875,0.015799,0.133372,-0.015654,0.990942,0.133355,-0.015799,-0.990942,-0.025292,0.002020,-0.078332,0.009873,0.000117,0.001281,346.236328,350.699127,-1.000000,0.000000,0.000000
482149494.312939,0.067093,-0.003021,-1.061722,0.133770,0.015800,0.000031,0.991066,0.002138,-0.133355,-0.000031,0.999875,0.015799,0.133372,-0.015654,0.990942,0.133355,-0.015799,-0.990942,-0.025292,0.002020,-0.078332,0.009873,0.000117,0.001281,346.236328,350.699127,-1.000000,0.000000,0.000000
482149494.321963,-0.032867,-0.008026,-1.063431,0.133799,0.015830,0.000033,0.991062,0.002145,-0.133383,-0.000033,0.999875,0.015830,0.133400,-0.015684,0.990938,0.133383,-0.015830,-0.990938,-0.054999,0.001593,-0.083464,0.001256,0.003478,-0.003677,346.236328,350.699127,-1.000000,0.000000,0.000000
482149494.333115,-0.219147,-0.007553,-1.082428,0.133704,0.015804,0.000018,0.991075,0.002125,-0.133289,-0.000018,0.999875,0.015804,0.133306,-0.015660,0.990951,0.133289,-0.015804,-0.990951,-0.066196,0.012783,-0.070771,0.002495,-0.008082,-0.006152,346.236328,350.699127,-1.000000,0.000000,0.000000
482149494.343479,-0.131851,-0.014069,-1.064148,0.133704,0.015804,0.000018,0.991075,0.002125,-0.133289,-0.000018,0.999875,0.015804,0.133306,-0.015660,0.990951,0.133289,-0.015804,-0.990951,-0.066196,0.012783,-0.070771,0.002495,-0.008082,-0.006152,346.236328,350.699127,-1.000000,0.000000,0.000000
482149494.353533,-0.131851,-0.014069,-1.064148,0.133665,0.015793,-0.000023,0.991080,0.002082,-0.133251,0.000022,0.999875,0.015792,0.133267,-0.015655,0.990956,0.133251,-0.015792,-0.990956,-0.066158,0.012771,-0.070765,-0.002445,-0.004632,-0.003707,346.236328,350.699127,-1.000000,0.000000,0.000000
482149494.362548,-0.144089,0.000031,-1.066177,0.133688,0.015836,0.000026,0.991077,0.002137,-0.133274,-0.000026,0.999875,0.015835,0.133291,-0.015691,0.990953,0.133274,-0.015835,-0.990953,-0.352420,0.008282,-0.091475,0.003720,0.004661,-0.002433,346.236328,350.699127,-1.000000,0.000000,0.000000
482149494.372964,-0.053650,-0.013504,-1.049881,0.133688,0.015836,0.000026,0.991077,0.002137,-0.133274,-0.000026,0.999875,0.015835,0.133291,-0.015691,0.990953,0.133274,-0.015835,-0.990953,-0.352420,0.008282,-0.091475,0.003720,0.004661,-0.002433,346.236328,350.699127,-1.000000,0.000000,0.000000
482149494.382700,0.044403,-0.009445,-1.052094,0.133673,0.015843,-0.000107,0.991079,0.002005,-0.133259,0.000107,0.999874,0.015842,0.133274,-0.015715,0.990955,0.133259,-0.015842,-0.990955,-0.265110,0.001774,-0.073193,0.000075,-0.001286,-0.019694,346.236328,350.699127,-1.000000,0.000000,0.000000
482149494.393044,0.107880,-0.008743,-1.059464,0.133590,0.015849,-0.000108,0.991090,0.002004,-0.133176,0.000108,0.999874,0.015848,0.133191,-0.015721,0.990966,0.133176,-0.015848,-0.990966,-0.186826,0.002344,-0.058915,0.001237,-0.009183,0.001226,346.236328,350.699127,-1.000000,0.000000,0.000000
482149494.402901,0.243820,-0.012390,-1.064377,0.133590,0.015849,-0.000108,0.991090,0.002004,-0.133176,0.000108,0.999874,0.015848,0.133191,-0.015721,0.990966,0.133176,-0.015848,-0.990966,-0.186826,0.002344,-0.058915,0.001237,-0.009183,0.001226,346.236328,350.699127,-1.000000,0.000000,0.000000
482149494.412773,0.125443,0.007660,-1.077957,0.133591,0.015924,-0.000136,0.991090,0.001986,-0.133177,0.000136,0.999873,0.015923,0.133192,-0.015800,0.990964,0.133177,-0.015923,-0.990964,-0.088774,0.006478,-0.061129,0.011123,0.003548,-0.003633,346.236328,350.699127,-1.000000,0.000000,0.000000
482149494.423050,0.133698,-0.003479,-1.083786,0.133609,0.015981,-0.000210,0.991088,0.001921,-0.133195,0.000210,0.999872,0.015980,0.133209,-0.015866,0.990961,0.133195,-0.015980,-0.990961,-0.025316,0.007237,-0.068503,-0.001197,0.006893,-0.007377,346.236328,350.699127,-1.000000,0.000000,0.000000
482149494.434023,0.025421,-0.007019,-1.040466,0.133583,0.016006,-0.000297,0.991092,0.001837,-0.133169,0.000297,0.999872,0.016005,0.133181,-0.015902,0.990964,0.133169,-0.016005,-0.990964,0.110652,0.003615,-0.073413,0.004963,-0.003445,-0.006134,346.236328,350.699127,-1.000000,0.000000,0.000000
482149494.442891,-0.088242,-0.011978,-1.070694,0.133583,0.016006,-0.000297,0.991092,0.001837,-0.133169,0.000297,0.999872,0.016005,0.133181,-0.015902,0.990964,0.133169,-0.016005,-0.990964,0.110652,0.003615,-0.073413,0.004963,-0.003445,-0.006134,346.236328,350.699127,-1.000000,0.000000,0.000000
482149494.452830,-0.220291,-0.008331,-1.055969,0.133512,0.016115,-0.000390,0.991101,0.001758,-0.133098,0.000390,0.999870,0.016114,0.133109,-0.016023,0.990972,0.133098,-0.016114,-0.990972,0.000599,0.012635,-0.092814,0.009884,-0.001069,-0.002415,346.236328,350.699127,-1.000000,0.000000,0.000000
482149494.463908,-0.123108,-0.006302,-1.067017,0.133496,0.016153,-0.000377,0.991103,0.001776,-0.133082,0.000377,0.999869,0.016152,0.133093,-0.016059,0.990973,0.133082,-0.016152,-0.990973,-0.107661,0.009133,-0.049493,-0.000010,-0.003376,0.006154,346.236328,350.699127,-1.000000,0.000000,0.000000
482149494.474751,-0.123108,-0.006302,-1.067017,0.133496,0.016153,-0.000377,0.991103,0.001776,-0.133082,0.000377,0.999869,0.016152,0.133093,-0.016059,0.990973,0.133082,-0.016152,-0.990973,-0.107661,0.009133,-0.049493,-0.000010,-0.003376,0.006154,346.236328,350.699127,-1.000000,0.000000,0.000000
482149494.482199,-0.115097,-0.013321,-1.051285,0.133524,0.016113,-0.000360,0.991100,0.001789,-0.133110,0.000359,0.999870,0.016113,0.133122,-0.016017,0.990970,0.133110,-0.016113,-0.990970,-0.353401,0.007781,-0.064999,-0.003698,-0.002279,0.002446,346.236328,350.699127,-1.000000,0.000000,0.000000
482149494.493144,-0.141037,-0.000076,-1.074005,0.133456,0.016095,-0.000315,0.991109,0.001829,-0.133043,0.000315,0.999870,0.016094,0.133056,-0.015993,0.990980,0.133043,-0.016094,-0.990980,-0.256151,0.009792,-0.076037,-0.004936,-0.005742,0.003666,346.236328,350.699127,-1.000000,0.000000,0.000000
482149494.502993,-0.068710,-0.001404,-1.063675,0.133456,0.016095,-0.000315,0.991109,0.001829,-0.133043,0.000315,0.999870,0.016094,0.133056,-0.015993,0.990980,0.133043,-0.016094,-0.990980,-0.256151,0.009792,-0.076037,-0.004936,-0.005742,0.003666,346.236328,350.699127,-1.000000,0.000000,0.000000
482149494.513019,0.160568,-0.012802,-1.065964,0.133435,0.016129,-0.000380,0.991111,0.001769,-0.133023,0.000380,0.999870,0.016128,0.133034,-0.016036,0.990982,0.133023,-0.016128,-0.990982,-0.248120,0.002807,-0.060303,0.006194,0.003502,-0.004886,346.236328,350.699127,-1.000000,0.000000,0.000000
482149494.523062,0.271317,-0.003952,-1.054382,0.133458,0.016143,-0.000369,0.991108,0.001782,-0.133045,0.000369,0.999870,0.016142,0.133057,-0.016048,0.990979,0.133045,-0.016142,-0.990979,-0.274082,0.016066,-0.083027,-0.001231,0.001203,0.002463,346.236328,350.699127,-1.000000,0.000000,0.000000
482149494.532893,0.154510,-0.000931,-1.091461,0.133458,0.016143,-0.000369,0.991108,0.001782,-0.133045,0.000369,0.999870,0.016142,0.133057,-0.016048,0.990979,0.133045,-0.016142,-0.990979,-0.274082,0.016066,-0.083027,-0.001231,0.001203,0.002463,346.236328,350.699127,-1.000000,0.000000,0.000000
482149494.542848,0.179337,-0.011124,-1.062881,0.133515,0.016158,-0.000389,0.991101,0.001765,-0.133102,0.000389,0.999869,0.016158,0.133113,-0.016066,0.990971,0.133102,-0.016158,-0.990971,0.027466,0.003356,-0.074993,0.011108,0.005899,0.001295,346.236328,350.699127,-1.000000,0.000000,0.000000
482149494.553094,0.153473,-0.011520,-1.047394,0.133561,0.016178,-0.000373,0.991095,0.001784,-0.133146,0.000373,0.999869,0.016177,0.133158,-0.016083,0.990964,0.133146,-0.016177,-0.990964,0.138170,0.012225,-0.063418,-0.000063,0.003510,0.002510,0.000000,0.000000,-1.000000,0.000000,0.000000
482149494.565581,0.153473,-0.011520,-1.047394,0.133561,0.016178,-0.000373,0.991095,0.001784,-0.133146,0.000373,0.999869,0.016177,0.133158,-0.016083,0.990964,0.133146,-0.016177,-0.990964,0.138170,0.012225,-0.063418,-0.000063,0.003510,0.002510,0.000000,0.000000,-1.000000,0.000000,0.000000
482149494.572220,0.002762,-0.004761,-1.065125,0.133487,0.016169,-0.000299,0.991104,0.001856,-0.133074,0.000299,0.999869,0.016168,0.133087,-0.016064,0.990974,0.133074,-0.016168,-0.990974,0.046263,0.005044,-0.071907,-0.005009,-0.001112,0.006173,348.028015,352.490814,-1.000000,0.000000,0.000000
482149494.583036,-0.097214,-0.016647,-1.050186,0.133375,0.016158,-0.000237,0.991119,0.001914,-0.132962,0.000237,0.999869,0.016157,0.132976,-0.016045,0.990989,0.132962,-0.016157,-0.990989,0.046374,0.005034,-0.071892,-0.000063,-0.012667,0.001253,348.028015,352.490814,-1.000000,0.000000,0.000000
482149494.593055,-0.236191,-0.007034,-1.056091,0.133375,0.016158,-0.000237,0.991119,0.001914,-0.132962,0.000237,0.999869,0.016157,0.132976,-0.016045,0.990989,0.132962,-0.016157,-0.990989,0.046374,0.005034,-0.071892,-0.000063,-0.012667,0.001253,348.028015,352.490814,-1.000000,0.000000,0.000000
482149494.602958,-0.110123,-0.013458,-1.056152,0.133380,0.016188,-0.000137,0.991118,0.002017,-0.132968,0.000137,0.999869,0.016187,0.132983,-0.016062,0.990988,0.132968,-0.016187,-0.990988,-0.130206,0.011427,-0.074136,-0.000060,0.000035,0.001273,348.028015,352.490814,-1.000000,0.000000,0.000000
482149494.613668,-0.076340,-0.015106,-1.059830,0.133375,0.016209,-0.000109,0.991119,0.002047,-0.132962,0.000109,0.999869,0.016209,0.132978,-0.016079,0.990989,0.132962,-0.016209,-0.990989,-0.230176,-0.000439,-0.059198,0.001161,0.000076,0.004972,348.028015,352.490814,-1.000000,0.000000,0.000000
482149494.623760,-0.026779,-0.016052,-1.057510,0.133403,0.016221,-0.000056,0.991115,0.002102,-0.132990,0.000056,0.999868,0.016221,0.133007,-0.016084,0.990985,0.132990,-0.016221,-0.990985,-0.243113,0.002762,-0.065168,-0.002511,-0.001178,-0.003664,348.009949,352.472748,-1.000000,0.000000,0.000000
482149494.633046,0.070312,-0.007187,-1.079346,0.133403,0.016221,-0.000056,0.991115,0.002102,-0.132990,0.000056,0.999868,0.016221,0.133007,-0.016084,0.990985,0.132990,-0.016221,-0.990985,-0.243113,0.002762,-0.065168,-0.002511,-0.001178,-0.003664,348.009949,352.472748,-1.000000,0.000000,0.000000
482149494.642971,0.196350,-0.016464,-1.066681,0.133386,0.016228,-0.000044,0.991117,0.002114,-0.132974,0.000044,0.999868,0.016228,0.132990,-0.016089,0.990987,0.132974,-0.016228,-0.990987,-0.209313,0.001121,-0.068843,0.002415,0.000032,-0.001178,348.009949,352.472748,-1.000000,0.000000,0.000000
482149494.653688,0.116928,-0.009048,-1.078018,0.133386,0.016228,-0.000044,0.991117,0.002114,-0.132974,0.000044,0.999868,0.016228,0.132990,-0.016089,0.990987,0.132974,-0.016228,-0.990987,-0.209313,0.001121,-0.068843,0.002415,0.000032,-0.001178,348.009949,352.472748,-1.000000,0.000000,0.000000
482149494.663291,0.118622,-0.005890,-1.045670,0.133421,0.016272,-0.000025,0.991113,0.002140,-0.133008,0.000025,0.999868,0.016271,0.133025,-0.016130,0.990981,0.133008,-0.016271,-0.990981,-0.159787,0.000219,-0.066529,0.008577,0.001241,0.000084,348.009949,352.472748,-1.000000,0.000000,0.000000
482149494.672990,0.118622,-0.005890,-1.045670,0.133411,0.016345,-0.000064,0.991114,0.002111,-0.132997,0.000064,0.999866,0.016344,0.133014,-0.016208,0.990982,0.132997,-0.016344,-0.990982,-0.062685,0.009157,-0.088364,0.008584,-0.004554,-0.002388,348.009949,352.472748,-1.000000,0.000000,0.000000
482149494.684098,0.024750,-0.017014,-1.053223,0.133377,0.016440,0.000021,0.991118,0.002207,-0.132964,-0.000021,0.999865,0.016439,0.132983,-0.016290,0.990984,0.132964,-0.016439,-0.990984,-0.016036,0.007391,-0.087034,0.002383,0.000115,0.008671,347.990387,352.453186,-1.000000,0.000000,0.000000
482149494.694437,0.024750,-0.017014,-1.053223,0.133377,0.016440,0.000021,0.991118,0.002207,-0.132964,-0.000021,0.999865,0.016439,0.132983,-0.016290,0.990984,0.132964,-0.016439,-0.990984,-0.016036,0.007391,-0.087034,0.002383,0.000115,0.008671,347.990387,352.453186,-1.000000,0.000000,0.000000
482149494.702698,-0.172455,-0.015305,-1.067383,0.133428,0.016469,0.000066,0.991112,0.002256,-0.133014,-0.000066,0.999864,0.016469,0.133034,-0.016313,0.990977,0.133014,-0.016469,-0.990977,-0.014393,0.010579,-0.054692,0.002401,0.007002,0.003757,347.990387,352.453186,-1.000000,0.000000,0.000000
482149494.713032,-0.294708,-0.004913,-1.058472,0.133401,0.016517,0.000073,0.991115,0.002269,-0.132987,-0.000073,0.999864,0.016517,0.133007,-0.016360,0.990980,0.132987,-0.016517,-0.990980,-0.108238,-0.000497,-0.062243,0.002419,0.000021,-0.002409,347.990387,352.453186,-1.000000,0.000000,0.000000
482149494.723028,-0.151901,-0.013489,-1.036850,0.133401,0.016517,0.000073,0.991115,0.002269,-0.132987,-0.000073,0.999864,0.016517,0.133007,-0.016360,0.990980,0.132987,-0.016517,-0.990980,-0.108238,-0.000497,-0.062243,0.002419,0.000021,-0.002409,347.971283,352.434082,-1.000000,0.000000,0.000000
482149494.733063,-0.115295,-0.000534,-1.068924,0.133441,0.016572,0.000078,0.991110,0.002282,-0.133027,-0.000078,0.999863,0.016571,0.133046,-0.016414,0.990974,0.133027,-0.016571,-0.990974,-0.305482,0.001267,-0.076409,0.002391,0.003559,0.006214,347.971283,352.434082,-1.000000,0.000000,0.000000
482149494.743734,-0.020981,-0.002441,-1.080978,0.133396,0.016592,0.000100,0.991116,0.002306,-0.132983,-0.000100,0.999862,0.016591,0.133003,-0.016431,0.990979,0.132983,-0.016591,-0.990979,-0.427691,0.011678,-0.067492,0.003642,-0.008032,0.000046,347.971283,352.434082,-1.000000,0.000000,0.000000
482149494.752778,0.077347,-0.016113,-1.062637,0.133396,0.016592,0.000100,0.991116,0.002306,-0.132983,-0.000100,0.999862,0.016591,0.133003,-0.016431,0.990979,0.132983,-0.016591,-0.990979,-0.427691,0.011678,-0.067492,0.003642,-0.008032,0.000046,347.971283,352.434082,-1.000000,0.000000,0.000000
482149494.762897,0.131622,-0.001404,-1.076935,0.133402,0.016556,0.000106,0.991115,0.002307,-0.132988,-0.000105,0.999863,0.016555,0.133008,-0.016394,0.990979,0.132988,-0.016555,-0.990979,-0.284889,0.003066,-0.045871,-0.003759,0.003473,0.001262,347.971283,352.434082,-1.000000,0.000000,0.000000
482149494.772962,0.108032,-0.011810,-1.071243,0.133515,0.016528,0.000086,0.991100,0.002285,-0.133100,-0.000086,0.999863,0.016527,0.133120,-0.016369,0.990965,0.133100,-0.016527,-0.990965,-0.154081,0.014086,-0.090014,0.003642,0.006990,0.001301,347.971283,352.434082,-1.000000,0.000000,0.000000
482149494.784690,0.108032,-0.011810,-1.071243,0.133515,0.016528,0.000086,0.991100,0.002285,-0.133100,-0.000086,0.999863,0.016527,0.133120,-0.016369,0.990965,0.133100,-0.016527,-0.990965,-0.154081,0.014086,-0.090014,0.003642,0.006990,0.001301,347.955475,352.418274,-1.000000,0.000000,0.000000
482149494.792718,0.096085,-0.015396,-1.050751,0.133564,0.016494,0.000157,0.991093,0.002352,-0.133150,-0.000157,0.999864,0.016494,0.133170,-0.016326,0.990959,0.133150,-0.016494,-0.990959,-0.055803,0.000380,-0.071679,-0.005020,0.005847,0.009877,347.955475,352.418274,-1.000000,0.000000,0.000000
482149494.802526,0.158386,-0.001907,-1.074768,0.133622,0.016569,0.000136,0.991086,0.002342,-0.133206,-0.000136,0.999863,0.016569,0.133227,-0.016403,0.990950,0.133206,-0.016569,-0.990950,-0.025174,0.004758,-0.080293,0.003636,0.002381,0.002525,347.955475,352.418274,-1.000000,0.000000,0.000000
482149494.813909,0.079910,-0.004166,-1.047897,0.133617,0.016602,0.000114,0.991086,0.002325,-0.133201,-0.000114,0.999862,0.016601,0.133222,-0.016438,0.990950,0.133201,-0.016601,-0.990950,-0.037117,0.001205,-0.059801,0.007348,0.000067,-0.001156,347.955475,352.418274,-1.000000,0.000000,0.000000
482149494.832603,-0.047653,-0.009766,-1.070404,0.133617,0.016602,0.000114,0.991086,0.002325,-0.133201,-0.000114,0.999862,0.016601,0.133222,-0.016438,0.990950,0.133201,-0.016601,-0.990950,-0.037117,0.001205,-0.059801,0.007348,0.000067,-0.001156,347.955475,352.418274,-1.000000,0.000000,0.000000
482149494.844383,-0.238998,-0.006165,-1.082565,0.133607,0.016715,0.000155,0.991087,0.002380,-0.133191,-0.000155,0.999860,0.016714,0.133212,-0.016544,0.990949,0.133191,-0.016714,-0.990949,-0.053281,0.012548,-0.056948,0.004865,0.001246,0.003759,347.937317,352.400116,-1.000000,0.000000,0.000000
482149494.853019,-0.131699,-0.012268,-1.091599,0.133607,0.016715,0.000155,0.991087,0.002380,-0.133191,-0.000155,0.999860,0.016714,0.133212,-0.016544,0.990949,0.133191,-0.016714,-0.990949,-0.053281,0.012548,-0.056948,0.004865,0.001246,0.003759,347.937317,352.400116,-1.000000,0.000000,0.000000
482149494.863209,-0.047684,-0.010727,-1.063538,0.133608,0.016764,0.000168,0.991087,0.002399,-0.133192,-0.000168,0.999859,0.016763,0.133213,-0.016591,0.990948,0.133192,-0.016763,-0.990948,-0.352491,0.002557,-0.047382,0.001173,-0.001111,0.001276,347.937317,352.400116,-1.000000,0.000000,0.000000
482149494.874860,0.054092,-0.003632,-1.043198,0.133574,0.016758,0.000217,0.991092,0.002447,-0.133158,-0.000217,0.999860,0.016757,0.133180,-0.016579,0.990953,0.133158,-0.016757,-0.990953,-0.372157,0.010592,-0.091612,-0.003773,-0.001114,0.004947,347.937317,352.400116,-1.000000,0.000000,0.000000
482149494.884035,0.054092,-0.003632,-1.043198,0.133574,0.016758,0.000217,0.991092,0.002447,-0.133158,-0.000217,0.999860,0.016757,0.133180,-0.016579,0.990953,0.133158,-0.016757,-0.990953,-0.372157,0.010592,-0.091612,-0.003773,-0.001114,0.004947,347.918854,352.381653,-1.000000,0.000000,0.000000
482149494.892712,0.141556,-0.005493,-1.066086,0.133568,0.016723,0.000289,0.991092,0.002513,-0.133152,-0.000289,0.999860,0.016723,0.133176,-0.016535,0.990955,0.133152,-0.016723,-0.990955,-0.180836,0.005996,-0.072583,0.003645,0.003516,0.000064,347.918854,352.381653,-1.000000,0.000000,0.000000
482149494.903043,0.260880,-0.021637,-1.062302,0.133551,0.016731,0.000258,0.991095,0.002484,-0.133136,-0.000258,0.999860,0.016730,0.133159,-0.016547,0.990957,0.133136,-0.016730,-0.990957,-0.079044,0.013099,-0.052241,-0.001279,-0.003479,-0.003663,347.918854,352.381653,-1.000000,0.000000,0.000000
482149494.913022,0.126541,0.003677,-1.077942,0.133551,0.016731,0.000258,0.991095,0.002484,-0.133136,-0.000258,0.999860,0.016730,0.133159,-0.016547,0.990957,0.133136,-0.016730,-0.990957,-0.079044,0.013099,-0.052241,-0.001279,-0.003479,-0.003663,347.918854,352.381653,-1.000000,0.000000,0.000000
482149494.922697,0.116013,-0.013931,-1.070206,0.133485,0.016778,0.000211,0.991104,0.002442,-0.133071,-0.000211,0.999859,0.016777,0.133093,-0.016600,0.990965,0.133071,-0.016777,-0.990965,0.008485,0.011284,-0.075121,-0.000068,-0.001099,0.003733,347.918854,352.381653,-1.000000,0.000000,0.000000
482149494.933109,0.126663,-0.005188,-1.064224,0.133497,0.016794,0.000245,0.991102,0.002478,-0.133082,-0.000245,0.999859,0.016793,0.133105,-0.016611,0.990963,0.133082,-0.016793,-0.990963,0.127798,-0.004844,-0.071339,0.002387,0.003569,0.007445,347.897339,352.360138,-1.000000,0.000000,0.000000
482149494.942979,0.022644,-0.009079,-1.062057,0.133497,0.016794,0.000245,0.991102,0.002478,-0.133082,-0.000245,0.999859,0.016793,0.133105,-0.016611,0.990963,0.133082,-0.016793,-0.990963,0.127798,-0.004844,-0.071339,0.002387,0.003569,0.007445,347.897339,352.360138,-1.000000,0.000000,0.000000
482149494.953124,-0.183517,-0.011047,-1.057678,0.133507,0.016730,0.000315,0.991100,0.002539,-0.133092,-0.000315,0.999860,0.016729,0.133116,-0.016538,0.990962,0.133092,-0.016729,-0.990962,-0.017080,0.002798,-0.079243,-0.005005,0.000031,0.004943,347.897339,352.360138,-1.000000,0.000000,0.000000
482149494.962999,-0.111221,-0.007492,-1.060089,0.133513,0.016728,0.000309,0.991100,0.002533,-0.133098,-0.000309,0.999860,0.016728,0.133122,-0.016537,0.990962,0.133098,-0.016728,-0.990962,-0.006435,0.011540,-0.073263,-0.001282,-0.000005,-0.002426,347.897339,352.360138,-1.000000,0.000000,0.000000
482149494.974344,-0.129990,-0.015930,-1.040634,0.133513,0.016728,0.000309,0.991100,0.002533,-0.133098,-0.000309,0.999860,0.016728,0.133122,-0.016537,0.990962,0.133098,-0.016728,-0.990962,-0.006435,0.011540,-0.073263,-0.001282,-0.000005,-0.002426,347.897339,352.360138,-1.000000,0.000000,0.000000
482149494.982720,-0.148819,-0.006851,-1.072128,0.133441,0.016742,0.000236,0.991109,0.002461,-0.133027,-0.000236,0.999860,0.016741,0.133050,-0.016561,0.990971,0.133027,-0.016741,-0.990971,-0.316544,0.005694,-0.066707,0.002450,-0.002372,-0.012262,347.897339,352.360138,-1.000000,0.000000,0.000000
482149494.993043,-0.148819,-0.006851,-1.072128,0.133413,0.016716,0.000227,0.991113,0.002449,-0.132999,-0.000227,0.999860,0.016715,0.133022,-0.016536,0.990975,0.132999,-0.016715,-0.990975,-0.244221,0.009223,-0.069114,0.002417,-0.004598,-0.002417,347.881287,352.344086,-1.000000,0.000000,0.000000
482149495.004689,-0.072372,-0.017136,-1.052933,0.133413,0.016716,0.000227,0.991113,0.002449,-0.132999,-0.000227,0.999860,0.016715,0.133022,-0.016536,0.990975,0.132999,-0.016715,-0.990975,-0.244221,0.009223,-0.069114,0.002417,-0.004598,-0.002417,347.881287,352.344086,-1.000000,0.000000,0.000000
482149495.012288,0.055237,-0.003799,-1.063766,0.133425,0.016645,0.000201,0.991112,0.002414,-0.133011,-0.000201,0.999861,0.016644,0.133033,-0.016469,0.990975,0.133011,-0.016644,-0.990975,-0.263000,0.000714,-0.049659,-0.008697,0.002294,0.002468,347.881287,352.344086,-1.000000,0.000000,0.000000
482149495.022854,0.206131,-0.005859,-1.083267,0.133431,0.016629,0.000174,0.991111,0.002384,-0.133017,-0.000174,0.999862,0.016628,0.133038,-0.016457,0.990974,0.133017,-0.016628,-0.990974,-0.281836,0.009777,-0.081154,-0.001278,-0.002325,-0.003661,347.881287,352.344086,-1.000000,0.000000,0.000000
482149495.033044,0.284225,-0.006149,-1.050354,0.133442,0.016602,0.000166,0.991109,0.002373,-0.133028,-0.000166,0.999862,0.016601,0.133049,-0.016432,0.990973,0.133028,-0.016601,-0.990973,-0.077791,0.012802,-0.072793,-0.001298,-0.001118,0.002496,347.881287,352.344086,-1.000000,0.000000,0.000000
482149495.043177,0.157684,-0.021561,-1.050308,0.133442,0.016602,0.000166,0.991109,0.002373,-0.133028,-0.000166,0.999862,0.016601,0.133049,-0.016432,0.990973,0.133028,-0.016601,-0.990973,-0.077791,0.012802,-0.072793,-0.001298,-0.001118,0.002496,347.867096,352.329895,-1.000000,0.000000,0.000000
482149495.052962,0.129883,-0.019043,-1.051483,0.133431,0.016648,0.000239,0.991111,0.002451,-0.133017,-0.000239,0.999861,0.016647,0.133039,-0.016467,0.990974,0.133017,-0.016647,-0.990974,0.073114,0.010787,-0.092293,0.003623,-0.002206,0.006210,347.867096,352.329895,-1.000000,0.000000,0.000000
482149495.062895,-0.003967,-0.012604,-1.067154,0.133421,0.016751,0.000250,0.991112,0.002476,-0.133007,-0.000250,0.999860,0.016750,0.133030,-0.016568,0.990974,0.133007,-0.016750,-0.990974,0.024678,-0.004811,-0.059335,0.008594,0.003508,-0.004838,347.867096,352.329895,-1.000000,0.000000,0.000000
482149495.073337,-0.097214,-0.014679,-1.056061,0.133421,0.016751,0.000250,0.991112,0.002476,-0.133007,-0.000250,0.999860,0.016750,0.133030,-0.016568,0.990974,0.133007,-0.016750,-0.990974,0.024678,-0.004811,-0.059335,0.008594,0.003508,-0.004838,347.867096,352.329895,-1.000000,0.000000,0.000000
482149495.083272,-0.264008,-0.002563,-1.063141,0.133455,0.016794,0.000257,0.991107,0.002489,-0.133041,-0.000257,0.999859,0.016793,0.133064,-0.016609,0.990968,0.133041,-0.016793,-0.990968,0.024644,-0.004768,-0.059340,0.009798,-0.001029,0.003777,347.867096,352.329895,-1.000000,0.000000,0.000000
482149495.093731,-0.264008,-0.002563,-1.063141,0.133557,0.016833,0.000241,0.991094,0.002480,-0.133142,-0.000241,0.999858,0.016832,0.133165,-0.016650,0.990954,0.133142,-0.016832,-0.990954,-0.137109,0.004228,-0.076200,0.009796,0.005910,0.005019,347.855347,352.318146,-1.000000,0.000000,0.000000
482149495.102972,-0.135818,-0.009155,-1.081818,0.133557,0.016833,0.000241,0.991094,0.002480,-0.133142,-0.000241,0.999858,0.016832,0.133165,-0.016650,0.990954,0.133142,-0.016832,-0.990954,-0.137109,0.004228,-0.076200,0.009796,0.005910,0.005019,347.855347,352.318146,-1.000000,0.000000,0.000000
482149495.112800,-0.099243,-0.014603,-1.050201,0.133506,0.016834,0.000302,0.991101,0.002540,-0.133091,-0.000302,0.999858,0.016833,0.133115,-0.016643,0.990961,0.133091,-0.016833,-0.990961,-0.230305,0.002154,-0.065100,-0.002548,-0.005704,0.007407,347.855347,352.318146,-1.000000,0.000000,0.000000
482149495.123444,0.007156,-0.023682,-1.060211,0.133529,0.016832,0.000345,0.991097,0.002583,-0.133114,-0.000345,0.999858,0.016832,0.133138,-0.016636,0.990958,0.133114,-0.016832,-0.990958,-0.268932,0.007676,-0.090860,-0.002529,0.008111,0.002505,347.855347,352.318146,-1.000000,0.000000,0.000000
482149495.132452,0.066422,-0.010071,-1.080368,0.133529,0.016832,0.000345,0.991097,0.002583,-0.133114,-0.000345,0.999858,0.016832,0.133138,-0.016636,0.990958,0.133114,-0.016832,-0.990958,-0.268932,0.007676,-0.090860,-0.002529,0.008111,0.002505,347.855347,352.318146,-1.000000,0.000000,0.000000
482149495.142887,0.168549,-0.011993,-1.073746,0.133506,0.016788,0.000333,0.991100,0.002565,-0.133091,-0.000333,0.999859,0.016787,0.133116,-0.016594,0.990962,0.133091,-0.016787,-0.990962,-0.232335,0.002185,-0.059240,-0.002504,-0.004665,-0.006133,347.843811,352.306610,-1.000000,0.000000,0.000000
482149495.152064,0.099808,-0.004593,-1.054626,0.133524,0.016918,0.000365,0.991098,0.002614,-0.133109,-0.000365,0.999857,0.016917,0.133134,-0.016718,0.990957,0.133109,-0.016917,-0.990957,-0.125953,-0.006764,-0.069254,-0.000060,0.000035,0.001272,347.843811,352.306610,-1.000000,0.000000,0.000000
482149495.163778,0.097794,-0.007431,-1.039948,0.133586,0.016895,0.000381,0.991090,0.002628,-0.133170,-0.000381,0.999857,0.016895,0.133196,-0.016693,0.990949,0.133170,-0.016895,-0.990949,-0.066749,0.006824,-0.089419,-0.000075,0.004696,0.006203,347.843811,352.306610,-1.000000,0.000000,0.000000
482149495.172021,0.176331,-0.013000,-1.051147,0.133586,0.016895,0.000381,0.991090,0.002628,-0.133170,-0.000381,0.999857,0.016895,0.133196,-0.016693,0.990949,0.133170,-0.016895,-0.990949,-0.066749,0.006824,-0.089419,-0.000075,0.004696,0.006203,347.843811,352.306610,-1.000000,0.000000,0.000000
482149495.183156,0.135696,-0.004486,-1.081802,0.133575,0.016900,0.000472,0.991091,0.002718,-0.133159,-0.000471,0.999857,0.016899,0.133186,-0.016686,0.990951,0.133159,-0.016899,-0.990951,-0.033351,0.012307,-0.063676,0.002411,0.003507,0.000058,347.843811,352.306610,-1.000000,0.000000,0.000000
482149495.193129,0.135696,-0.004486,-1.081802,0.133575,0.016900,0.000472,0.991091,0.002718,-0.133159,-0.000471,0.999857,0.016899,0.133186,-0.016686,0.990951,0.133159,-0.016899,-0.990951,-0.033351,0.012307,-0.063676,0.002411,0.003507,0.000058,347.843811,352.306610,-1.000000,0.000000,0.000000
482149495.203613,-0.165497,-0.012543,-1.080078,0.133586,0.016909,0.000495,0.991089,0.002743,-0.133170,-0.000495,0.999857,0.016908,0.133197,-0.016691,0.990949,0.133170,-0.016908,-0.990949,-0.035376,0.009477,-0.048999,0.001168,-0.001100,0.002507,347.830872,352.293671,-1.000000,0.000000,0.000000
482149495.213738,-0.160019,-0.005371,-1.033981,0.133558,0.016899,0.000473,0.991093,0.002719,-0.133143,-0.000473,0.999857,0.016898,0.133170,-0.016684,0.990953,0.133143,-0.016898,-0.990953,0.002554,0.012412,-0.090850,-0.001278,-0.001170,-0.003660,347.830872,352.293671,-1.000000,0.000000,0.000000
482149495.222658,-0.160019,-0.005371,-1.033981,0.133497,0.016872,0.000410,0.991101,0.002652,-0.133082,-0.000410,0.999858,0.016871,0.133108,-0.016666,0.990961,0.133082,-0.016871,-0.990961,-0.113215,-0.002065,-0.064260,0.002428,-0.010403,-0.006120,347.830872,352.293671,-1.000000,0.000000,0.000000
482149495.232890,-0.119156,-0.001526,-1.079712,0.133497,0.016872,0.000410,0.991101,0.002652,-0.133082,-0.000410,0.999858,0.016871,0.133108,-0.016666,0.990961,0.133082,-0.016871,-0.990961,-0.113215,-0.002065,-0.064260,0.002428,-0.010403,-0.006120,347.830872,352.293671,-1.000000,0.000000,0.000000
482149495.242519,-0.004410,0.002365,-1.056366,0.133498,0.016860,0.000376,0.991101,0.002617,-0.133083,-0.000376,0.999858,0.016859,0.133108,-0.016659,0.990961,0.133083,-0.016859,-0.990961,-0.298580,0.004317,-0.089117,0.002409,-0.003422,0.000046,347.817657,352.280457,-1.000000,0.000000,0.000000
482149495.253119,0.095245,-0.018463,-1.065445,0.133486,0.016826,0.000442,0.991103,0.002677,-0.133071,-0.000441,0.999858,0.016825,0.133097,-0.016617,0.990964,0.133071,-0.016825,-0.990964,-0.293090,0.011454,-0.043018,-0.003777,-0.001104,0.006177,347.817657,352.280457,-1.000000,0.000000,0.000000
482149495.262956,0.081192,-0.007339,-1.074371,0.133486,0.016826,0.000442,0.991103,0.002677,-0.133071,-0.000441,0.999858,0.016825,0.133097,-0.016617,0.990964,0.133071,-0.016825,-0.990964,-0.293090,0.011454,-0.043018,-0.003777,-0.001104,0.006177,347.817657,352.280457,-1.000000,0.000000,0.000000
482149495.272655,0.227844,-0.016830,-1.032150,0.133464,0.016896,0.000476,0.991106,0.002719,-0.133049,-0.000475,0.999857,0.016895,0.133076,-0.016681,0.990965,0.133049,-0.016895,-0.990965,-0.137459,0.019260,-0.065401,0.003617,0.004743,0.008682,347.817657,352.280457,-1.000000,0.000000,0.000000
482149495.282841,0.104218,-0.016724,-1.076172,0.133521,0.016885,0.000489,0.991098,0.002733,-0.133105,-0.000489,0.999857,0.016884,0.133132,-0.016669,0.990958,0.133105,-0.016884,-0.990958,-0.037860,-0.001579,-0.074487,-0.000062,0.009283,0.002517,347.817657,352.280457,-1.000000,0.000000,0.000000
482149495.293067,0.099899,-0.004684,-1.066391,0.133589,0.016934,0.000454,0.991089,0.002705,-0.133173,-0.000454,0.999857,0.016933,0.133200,-0.016722,0.990948,0.133173,-0.016933,-0.990948,0.094671,0.000102,-0.041202,-0.001270,0.001118,-0.006119,347.817657,352.280457,-1.000000,0.000000,0.000000
482149495.302790,0.159470,-0.005875,-1.073807,0.133589,0.016934,0.000454,0.991089,0.002705,-0.133173,-0.000454,0.999857,0.016933,0.133200,-0.016722,0.990948,0.133173,-0.016933,-0.990948,0.094671,0.000102,-0.041202,-0.001270,0.001118,-0.006119,347.800476,352.263275,-1.000000,0.000000,0.000000
482149495.312854,-0.039886,-0.006836,-1.055649,0.133595,0.016922,0.000414,0.991088,0.002664,-0.133179,-0.000414,0.999857,0.016921,0.133205,-0.016715,0.990948,0.133179,-0.016921,-0.990948,-0.028962,0.000197,-0.085224,0.003659,0.000009,-0.004867,347.800476,352.263275,-1.000000,0.000000,0.000000
482149495.325165,-0.203568,-0.006577,-1.044083,0.133584,0.016902,0.000459,0.991090,0.002706,-0.133168,-0.000459,0.999857,0.016902,0.133195,-0.016690,0.990949,0.133168,-0.016902,-0.990949,-0.033269,0.012217,-0.075442,-0.003769,0.000029,0.003717,347.800476,352.263275,-1.000000,0.000000,0.000000
482149495.333292,-0.229843,-0.012375,-1.093277,0.133584,0.016902,0.000459,0.991090,0.002706,-0.133168,-0.000459,0.999857,0.016902,0.133195,-0.016690,0.990949,0.133168,-0.016902,-0.990949,-0.033269,0.012217,-0.075442,-0.003769,0.000029,0.003717,347.800476,352.263275,-1.000000,0.000000,0.000000
482149495.342349,-0.229843,-0.012375,-1.093277,0.133612,0.016905,0.000435,0.991086,0.002683,-0.133196,-0.000435,0.999857,0.016904,0.133223,-0.016695,0.990946,0.133196,-0.016904,-0.990946,0.026273,0.011029,-0.082861,-0.001281,0.002304,-0.002424,347.800476,352.263275,-1.000000,0.000000,0.000000
482149495.352876,-0.143616,-0.013977,-1.084824,0.133608,0.016998,0.000418,0.991087,0.002678,-0.133192,-0.000418,0.999855,0.016997,0.133218,-0.016790,0.990945,0.133192,-0.016997,-0.990945,-0.336759,0.010421,-0.053138,0.006114,-0.001097,-0.001164,347.786926,352.249725,-1.000000,0.000000,0.000000
482149495.362839,-0.161835,-0.003586,-1.066315,0.133608,0.016998,0.000418,0.991087,0.002678,-0.133192,-0.000418,0.999855,0.016997,0.133218,-0.016790,0.990945,0.133192,-0.016997,-0.990945,-0.336759,0.010421,-0.053138,0.006114,-0.001097,-0.001164,347.786926,352.249725,-1.000000,0.000000,0.000000
482149495.371952,-0.062622,-0.007462,-1.064636,0.133614,0.017002,0.000406,0.991086,0.002667,-0.133198,-0.000406,0.999855,0.017001,0.133224,-0.016796,0.990944,0.133198,-0.017001,-0.990944,-0.363041,0.004626,-0.102333,-0.002526,0.003482,0.001266,347.786926,352.249725,-1.000000,0.000000,0.000000
482149495.382112,0.049133,-0.004486,-1.037338,0.133565,0.017069,0.000416,0.991092,0.002685,-0.133148,-0.000416,0.999854,0.017068,0.133175,-0.016861,0.990949,0.133148,-0.017068,-0.990949,-0.294983,0.013482,-0.075366,0.002411,0.003506,0.000057,347.786926,352.249725,-1.000000,0.000000,0.000000
482149495.392176,0.114746,-0.003006,-1.068253,0.133565,0.017069,0.000416,0.991092,0.002685,-0.133148,-0.000416,0.999854,0.017068,0.133175,-0.016861,0.990949,0.133148,-0.017068,-0.990949,-0.294983,0.013482,-0.075366,0.002411,0.003506,0.000057,347.786926,352.249725,-1.000000,0.000000,0.000000
482149495.402679,0.271011,-0.023987,-1.083786,0.133536,0.017122,0.000506,0.991096,0.002781,-0.133120,-0.000506,0.999853,0.017122,0.133148,-0.016902,0.990952,0.133120,-0.017122,-0.990952,-0.195742,0.009660,-0.073684,0.004838,-0.007930,0.011129,347.773834,352.236633,-1.000000,0.000000,0.000000
482149495.411801,0.124878,-0.014069,-1.064255,0.133502,0.017188,0.000643,0.991100,0.002925,-0.133086,-0.000643,0.999852,0.017187,0.133117,-0.016948,0.990955,0.133086,-0.017187,-0.990955,-0.018340,0.014181,-0.077297,0.003616,0.002433,0.008678,347.773834,352.236633,-1.000000,0.000000,0.000000
482149495.422210,0.101913,-0.004745,-1.070297,0.133502,0.017188,0.000643,0.991100,0.002925,-0.133086,-0.000643,0.999852,0.017187,0.133117,-0.016948,0.990955,0.133086,-0.017187,-0.990955,-0.018340,0.014181,-0.077297,0.003616,0.002433,0.008678,347.773834,352.236633,-1.000000,0.000000,0.000000
482149495.432221,-0.023041,-0.011047,-1.039856,0.133513,0.017161,0.000719,0.991098,0.002997,-0.133097,-0.000719,0.999852,0.017160,0.133129,-0.016911,0.990954,0.133097,-0.017160,-0.990954,-0.018351,0.014154,-0.077298,-0.003789,-0.001073,0.009870,347.773834,352.236633,-1.000000,0.000000,0.000000
482149495.443245,-0.121124,-0.007324,-1.063095,0.133524,0.017181,0.000790,0.991097,0.003070,-0.133108,-0.000790,0.999852,0.017180,0.133141,-0.016922,0.990953,0.133108,-0.017180,-0.990953,-0.008230,0.003112,-0.073302,-0.005006,-0.002279,0.004938,347.773834,352.236633,-1.000000,0.000000,0.000000
482149495.455226,-0.218277,-0.011322,-1.050064,0.133546,0.017158,0.000805,0.991094,0.003083,-0.133130,-0.000805,0.999852,0.017157,0.133163,-0.016897,0.990950,0.133130,-0.017157,-0.990950,-0.031217,0.012412,-0.079347,-0.001285,0.003469,-0.001191,347.760559,352.223358,-1.000000,0.000000,0.000000
482149495.464124,-0.119980,-0.011368,-1.069962,0.133546,0.017158,0.000805,0.991094,0.003083,-0.133130,-0.000805,0.999852,0.017157,0.133163,-0.016897,0.990950,0.133130,-0.017157,-0.990950,-0.031217,0.012412,-0.079347,-0.001285,0.003469,-0.001191,347.760559,352.223358,-1.000000,0.000000,0.000000
482149495.472712,-0.119980,-0.011368,-1.069962,0.133525,0.017201,0.000819,0.991097,0.003101,-0.133109,-0.000819,0.999852,0.017200,0.133142,-0.016938,0.990952,0.133109,-0.017200,-0.990952,-0.254233,0.009876,-0.072143,0.002390,-0.001061,0.006204,347.760559,352.223358,-1.000000,0.000000,0.000000
482149495.482595,-0.107269,-0.011429,-1.044388,0.133525,0.017201,0.000819,0.991097,0.003101,-0.133109,-0.000819,0.999852,0.017200,0.133142,-0.016938,0.990952,0.133109,-0.017200,-0.990952,-0.254233,0.009876,-0.072143,0.002390,-0.001061,0.006204,347.760559,352.223358,-1.000000,0.000000,0.000000
482149495.492722,-0.131088,-0.000320,-1.080795,0.133564,0.017244,0.000874,0.991091,0.003162,-0.133147,-0.000874,0.999851,0.017243,0.133182,-0.016973,0.990946,0.133147,-0.017243,-0.990946,-0.351424,0.005921,-0.059118,0.003617,0.004743,0.008682,347.760559,352.223358,-1.000000,0.000000,0.000000
482149495.502915,-0.047562,-0.017639,-1.056702,0.133519,0.017222,0.000896,0.991097,0.003180,-0.133103,-0.000896,0.999851,0.017221,0.133138,-0.016948,0.990953,0.133103,-0.017221,-0.990953,-0.240372,0.005792,-0.053435,0.002409,-0.003422,0.000046,347.760559,352.223358,-1.000000,0.000000,0.000000
482149495.514544,0.057266,-0.003876,-1.069626,0.133502,0.017184,0.000889,0.991099,0.003168,-0.133086,-0.000889,0.999852,0.017183,0.133121,-0.016912,0.990955,0.133086,-0.017183,-0.990955,-0.240356,0.005754,-0.053432,-0.004982,0.001123,-0.002443,347.747223,352.210022,-1.000000,0.000000,0.000000
482149495.522226,0.238693,-0.007309,-1.057541,0.133502,0.017184,0.000889,0.991099,0.003168,-0.133086,-0.000889,0.999852,0.017183,0.133121,-0.016912,0.990955,0.133086,-0.017183,-0.990955,-0.240356,0.005754,-0.053432,-0.004982,0.001123,-0.002443,347.747223,352.210022,-1.000000,0.000000,0.000000
482149495.532675,0.148621,-0.003815,-1.090530,0.133430,0.017227,0.000854,0.991109,0.003138,-0.133015,-0.000854,0.999851,0.017226,0.133049,-0.016959,0.990964,0.133015,-0.017226,-0.990964,-0.180577,-0.000413,-0.065737,-0.009933,-0.005799,0.002448,347.747223,352.210022,-1.000000,0.000000,0.000000
482149495.547068,0.158524,-0.014633,-1.051270,0.133402,0.017195,0.000846,0.991113,0.003126,-0.132987,-0.000846,0.999852,0.017194,0.133021,-0.016929,0.990969,0.132987,-0.017194,-0.990969,-0.075721,0.013318,-0.078657,-0.002521,-0.006933,-0.001213,347.747223,352.210022,-1.000000,0.000000,0.000000
482149495.552207,0.131729,-0.009262,-1.067139,0.133402,0.017195,0.000846,0.991113,0.003126,-0.132987,-0.000846,0.999852,0.017194,0.133021,-0.016929,0.990969,0.132987,-0.017194,-0.990969,-0.075721,0.013318,-0.078657,-0.002521,-0.006933,-0.001213,347.747223,352.210022,-1.000000,0.000000,0.000000
482149495.563320,-0.008026,-0.011475,-1.058365,0.133408,0.017184,0.000866,0.991112,0.003144,-0.132993,-0.000866,0.999852,0.017184,0.133028,-0.016916,0.990968,0.132993,-0.017184,-0.990968,0.015627,0.013369,-0.099562,0.001176,0.000033,0.000045,347.731842,352.194641,-1.000000,0.000000,0.000000
482149495.573815,-0.153870,-0.007629,-1.057465,0.133453,0.017148,0.000830,0.991106,0.003104,-0.133038,-0.000830,0.999853,0.017148,0.133072,-0.016885,0.990963,0.133038,-0.017148,-0.990963,0.025486,0.002514,-0.060307,-0.006242,0.004561,-0.003619,347.731842,352.194641,-1.000000,0.000000,0.000000
482149495.582846,-0.153870,-0.007629,-1.057465,0.133453,0.017148,0.000830,0.991106,0.003104,-0.133038,-0.000830,0.999853,0.017148,0.133072,-0.016885,0.990963,0.133038,-0.017148,-0.990963,0.025486,0.002514,-0.060307,-0.006242,0.004561,-0.003619,347.731842,352.194641,-1.000000,0.000000,0.000000
482149495.592618,-0.269836,-0.003540,-1.075928,0.133471,0.017156,0.000807,0.991104,0.003082,-0.133055,-0.000807,0.999853,0.017155,0.133089,-0.016895,0.990960,0.133055,-0.017155,-0.990960,-0.001326,0.007893,-0.076179,-0.000066,-0.002355,-0.007295,347.731842,352.194641,-1.000000,0.000000,0.000000
482149495.602908,-0.101288,-0.012573,-1.048248,0.133544,0.017173,0.000854,0.991094,0.003133,-0.133127,-0.000854,0.999852,0.017172,0.133162,-0.016906,0.990950,0.133127,-0.017172,-0.990950,-0.141154,0.005698,-0.067415,-0.000113,0.013947,0.008734,347.731842,352.194641,-1.000000,0.000000,0.000000
482149495.613342,-0.088303,-0.007065,-1.079514,0.133544,0.017173,0.000854,0.991094,0.003133,-0.133127,-0.000854,0.999852,0.017172,0.133162,-0.016906,0.990950,0.133127,-0.017172,-0.990950,-0.141154,0.005698,-0.067415,-0.000113,0.013947,0.008734,347.722107,352.184906,-1.000000,0.000000,0.000000
482149495.622716,-0.025742,-0.019989,-1.045746,0.133594,0.017168,0.000917,0.991087,0.003195,-0.133177,-0.000917,0.999852,0.017167,0.133212,-0.016892,0.990944,0.133177,-0.017167,-0.990944,-0.403014,0.013627,-0.084984,0.003611,0.002353,0.000116,347.722107,352.184906,-1.000000,0.000000,0.000000
482149495.633058,0.069366,-0.005280,-1.095016,0.133561,0.017219,0.000899,0.991092,0.003184,-0.133144,-0.000899,0.999851,0.017218,0.133180,-0.016945,0.990947,0.133144,-0.017218,-0.990947,-0.234432,0.004645,-0.057301,0.004860,-0.001145,-0.004809,347.722107,352.184906,-1.000000,0.000000,0.000000
482149495.644805,0.204056,-0.013489,-1.045074,0.133551,0.017289,0.000843,0.991093,0.003138,-0.133135,-0.000843,0.999850,0.017288,0.133169,-0.017021,0.990947,0.133135,-0.017288,-0.990947,-0.158876,-0.002701,-0.054799,0.002393,-0.002317,-0.004822,347.722107,352.184906,-1.000000,0.000000,0.000000
482149495.653523,0.127701,-0.007172,-1.064224,0.133551,0.017289,0.000843,0.991093,0.003138,-0.133135,-0.000843,0.999850,0.017288,0.133169,-0.017021,0.990947,0.133135,-0.017288,-0.990947,-0.158876,-0.002701,-0.054799,0.002393,-0.002317,-0.004822,347.722107,352.184906,-1.000000,0.000000,0.000000
482149495.662859,0.136490,-0.006241,-1.047485,0.133569,0.017325,0.000804,0.991091,0.003103,-0.133152,-0.000803,0.999850,0.017324,0.133186,-0.017063,0.990944,0.133152,-0.017324,-0.990944,-0.063786,0.012044,-0.104072,0.004857,0.003485,-0.003570,347.711639,352.174438,-1.000000,0.000000,0.000000
482149495.674615,0.136490,-0.006241,-1.047485,0.133569,0.017325,0.000804,0.991091,0.003103,-0.133152,-0.000803,0.999850,0.017324,0.133186,-0.017063,0.990944,0.133152,-0.017324,-0.990944,-0.063786,0.012044,-0.104072,0.004857,0.003485,-0.003570,347.711639,352.174438,-1.000000,0.000000,0.000000
482149495.682919,0.210922,-0.002869,-1.069504,0.133569,0.017353,0.000844,0.991091,0.003147,-0.133152,-0.000844,0.999849,0.017352,0.133187,-0.017085,0.990944,0.133152,-0.017352,-0.990944,0.070904,0.003863,-0.054131,-0.000104,0.002368,0.005023,347.711639,352.174438,-1.000000,0.000000,0.000000
482149495.692808,0.022720,-0.014008,-1.055191,0.133591,0.017381,0.000884,0.991087,0.003191,-0.133174,-0.000883,0.999849,0.017380,0.133210,-0.017108,0.990940,0.133174,-0.017380,-0.990940,-0.005474,0.010209,-0.073284,0.003605,0.006993,0.002585,347.711639,352.174438,-1.000000,0.000000,0.000000
482149495.703585,-0.188400,-0.011047,-1.071411,0.133626,0.017412,0.000900,0.991083,0.003211,-0.133208,-0.000900,0.999848,0.017411,0.133244,-0.017136,0.990935,0.133208,-0.017411,-0.990935,0.077714,0.014542,-0.078569,-0.000101,0.000048,0.003788,347.711639,352.174438,-1.000000,0.000000,0.000000
482149495.712568,-0.314545,-0.006485,-1.053711,0.133626,0.017412,0.000900,0.991083,0.003211,-0.133208,-0.000900,0.999848,0.017411,0.133244,-0.017136,0.990935,0.133208,-0.017411,-0.990935,0.077714,0.014542,-0.078569,-0.000101,0.000048,0.003788,347.711639,352.174438,-1.000000,0.000000,0.000000
482149495.723078,-0.147751,-0.018600,-1.045639,0.133631,0.017414,0.000924,0.991082,0.003236,-0.133214,-0.000924,0.999848,0.017413,0.133250,-0.017135,0.990934,0.133214,-0.017413,-0.990934,-0.110493,0.003406,-0.064257,-0.001326,0.001173,0.001322,347.705414,352.168213,-1.000000,0.000000,0.000000
482149495.733735,-0.152054,0.000229,-1.061340,0.133581,0.017359,0.000891,0.991089,0.003195,-0.133164,-0.000891,0.999849,0.017359,0.133199,-0.017085,0.990942,0.133164,-0.017359,-0.990942,-0.447709,0.010874,-0.062769,-0.003794,-0.002309,0.001305,347.705414,352.168213,-1.000000,0.000000,0.000000
482149495.742854,-0.033844,-0.003189,-1.080093,0.133581,0.017359,0.000891,0.991089,0.003195,-0.133164,-0.000891,0.999849,0.017359,0.133199,-0.017085,0.990942,0.133164,-0.017359,-0.990942,-0.447709,0.010874,-0.062769,-0.003794,-0.002309,0.001305,347.705414,352.168213,-1.000000,0.000000,0.000000
482149495.753013,0.072357,-0.012085,-1.070526,0.133610,0.017385,0.000859,0.991085,0.003167,-0.133192,-0.000858,0.999849,0.017384,0.133227,-0.017114,0.990938,0.133192,-0.017384,-0.990938,-0.280943,-0.001217,-0.054701,0.002394,0.003457,-0.004813,347.705414,352.168213,-1.000000,0.000000,0.000000
482149495.762888,0.108093,-0.013794,-1.072220,0.133560,0.017395,0.000811,0.991092,0.003120,-0.133143,-0.000811,0.999848,0.017394,0.133177,-0.017131,0.990944,0.133143,-0.017394,-0.990944,-0.285197,0.017623,-0.070396,-0.001323,0.002272,-0.004800,347.705414,352.168213,-1.000000,0.000000,0.000000
482149495.776585,0.109848,-0.007828,-1.063370,0.133532,0.017369,0.000810,0.991096,0.003115,-0.133115,-0.000810,0.999849,0.017368,0.133149,-0.017106,0.990948,0.133115,-0.017368,-0.990948,-0.166959,0.014179,-0.089145,0.001127,-0.001132,0.000129,347.697876,352.160675,-1.000000,0.000000,0.000000
482149495.784458,0.109848,-0.007828,-1.063370,0.133532,0.017369,0.000810,0.991096,0.003115,-0.133115,-0.000810,0.999849,0.017368,0.133149,-0.017106,0.990948,0.133115,-0.017368,-0.990948,-0.166959,0.014179,-0.089145,0.001127,-0.001132,0.000129,347.697876,352.160675,-1.000000,0.000000,0.000000
482149495.792325,0.103180,-0.012772,-1.082047,0.133403,0.017414,0.000848,0.991113,0.003157,-0.132987,-0.000848,0.999848,0.017414,0.133022,-0.017146,0.990965,0.132987,-0.017414,-0.990965,-0.024894,0.003620,-0.081255,0.002335,-0.009144,0.007508,347.697876,352.160675,-1.000000,0.000000,0.000000
482149495.802247,0.142563,-0.012299,-1.045517,0.133403,0.017414,0.000848,0.991113,0.003157,-0.132987,-0.000848,0.999848,0.017414,0.133022,-0.017146,0.990965,0.132987,-0.017414,-0.990965,-0.024894,0.003620,-0.081255,0.002335,-0.009144,0.007508,347.697876,352.160675,-1.000000,0.000000,0.000000
482149495.812598,0.052292,-0.005707,-1.062790,0.133386,0.017447,0.000924,0.991115,0.003236,-0.132970,-0.000924,0.999847,0.017447,0.133006,-0.017169,0.990966,0.132970,-0.017447,-0.990966,-0.023122,0.009619,-0.072403,0.003566,-0.002197,0.008756,347.697876,352.160675,-1.000000,0.000000,0.000000
482149495.823090,-0.038803,-0.008911,-1.061508,0.133381,0.017491,0.000854,0.991116,0.003172,-0.132966,-0.000854,0.999847,0.017490,0.133001,-0.017221,0.990966,0.132966,-0.017490,-0.990966,0.009597,0.005191,-0.054551,-0.000098,-0.003471,-0.002342,347.685669,352.148468,-1.000000,0.000000,0.000000
482149495.835885,-0.184677,-0.007004,-1.050812,0.133348,0.017484,0.000856,0.991120,0.003173,-0.132932,-0.000856,0.999847,0.017483,0.132968,-0.017214,0.990971,0.132932,-0.017483,-0.990971,-0.080641,0.011776,-0.071819,-0.003810,-0.002312,0.001336,347.685669,352.148468,-1.000000,0.000000,0.000000
482149495.848275,-0.141815,-0.013840,-1.060303,0.133348,0.017484,0.000856,0.991120,0.003173,-0.132932,-0.000856,0.999847,0.017483,0.132968,-0.017214,0.990971,0.132932,-0.017483,-0.990971,-0.080641,0.011776,-0.071819,-0.003810,-0.002312,0.001336,347.685669,352.148468,-1.000000,0.000000,0.000000
482149495.852247,-0.141815,-0.013840,-1.060303,0.133258,0.017564,0.000884,0.991132,0.003210,-0.132844,-0.000884,0.999845,0.017563,0.132880,-0.017290,0.990981,0.132844,-0.017563,-0.990981,-0.171647,0.008652,-0.070527,0.008508,0.001282,0.006322,347.685669,352.148468,-1.000000,0.000000,0.000000
482149495.864947,-0.141907,-0.005966,-1.072067,0.133297,0.017547,0.000948,0.991126,0.003272,-0.132882,-0.000948,0.999846,0.017546,0.132919,-0.017265,0.990977,0.132882,-0.017546,-0.990977,-0.317559,0.010543,-0.059835,-0.003825,0.003504,0.006269,347.685669,352.148468,-1.000000,0.000000,0.000000
482149495.873102,0.077042,-0.009979,-1.039139,0.133297,0.017547,0.000948,0.991126,0.003272,-0.132882,-0.000948,0.999846,0.017546,0.132919,-0.017265,0.990977,0.132882,-0.017546,-0.990977,-0.317559,0.010543,-0.059835,-0.003825,0.003504,0.006269,347.673553,352.136353,-1.000000,0.000000,0.000000
482149495.882468,0.138641,-0.005493,-1.075912,0.133240,0.017465,0.001028,0.991134,0.003339,-0.132826,-0.001028,0.999847,0.017464,0.132864,-0.017173,0.990986,0.132826,-0.017464,-0.990986,-0.274641,0.003624,-0.069317,-0.002573,-0.001159,0.000112,347.673553,352.136353,-1.000000,0.000000,0.000000
