Timestamp,Accel_X,Accel_Y,Accel_Z,Roll,Pitch,Yaw,RM11,RM12,RM13,RM21,RM22,RM23,RM31,RM32,RM33,GravAcc_X,GravAcc_Y,GravAcc_Z,UserAcc_X,UserAcc_Y,UserAcc_Z,RotRate_X,RotRate_Y,RotRate_Z,MagHeading,TrueHeading,HeadingAccuracy,Course,Speed
482148227.534296,0.000000,0.000000,0.000000,0.000000,0.000000,0.000000,0.000000,0.000000,0.000000,0.000000,0.000000,0.000000,0.000000,0.000000,0.000000,0.000000,0.000000,0.000000,0.000000,0.000000,0.000000,0.000000,0.000000,0.000000,0.000000,0.000000,0.000000,0.000000,0.000000
482148227.535159,0.000000,0.000000,0.000000,0.000000,0.000000,0.000000,0.000000,0.000000,0.000000,0.000000,0.000000,0.000000,0.000000,0.000000,0.000000,0.000000,0.000000,0.000000,0.000000,0.000000,0.000000,0.000000,0.000000,0.000000,0.000000,0.000000,0.000000,0.000000,0.000000
482148227.568321,0.000000,0.000000,0.000000,0.000000,0.000000,0.000000,0.000000,0.000000,0.000000,0.000000,0.000000,0.000000,0.000000,0.000000,0.000000,0.000000,0.000000,0.000000,0.000000,0.000000,0.000000,0.000000,0.000000,0.000000,0.000000,0.000000,0.000000,0.000000,0.000000
482148227.576562,0.000000,0.000000,0.000000,0.000000,0.000000,0.000000,0.000000,0.000000,0.000000,0.000000,0.000000,0.000000,0.000000,0.000000,0.000000,0.000000,0.000000,0.000000,0.000000,0.000000,0.000000,0.000000,0.000000,0.000000,0.000000,0.000000,0.000000,0.000000,0.000000
482148227.586149,0.000000,0.000000,0.000000,0.000000,0.000000,0.000000,0.000000,0.000000,0.000000,0.000000,0.000000,0.000000,0.000000,0.000000,0.000000,0.000000,0.000000,0.000000,0.000000,0.000000,0.000000,0.000000,0.000000,0.000000,0.000000,0.000000,0.000000,0.000000,0.000000
482148227.647973,0.007751,-0.007828,-1.064117,0.000000,0.000000,0.000000,0.000000,0.000000,0.000000,0.000000,0.000000,0.000000,0.000000,0.000000,0.000000,0.000000,0.000000,0.000000,0.000000,0.000000,0.000000,0.000000,0.000000,0.000000,0.000000,0.000000,0.000000,0.000000,0.000000
482148227.666821,0.008820,-0.008865,-1.068039,0.000000,0.000000,0.000000,0.000000,0.000000,0.000000,0.000000,0.000000,0.000000,0.000000,0.000000,0.000000,0.000000,0.000000,0.000000,0.000000,0.000000,0.000000,0.000000,0.000000,0.000000,0.000000,0.000000,0.000000,0.000000,0.000000
482148227.715868,0.010803,-0.010834,-1.061157,0.000000,0.000000,0.000000,0.000000,0.000000,0.000000,0.000000,0.000000,0.000000,0.000000,0.000000,0.000000,0.000000,0.000000,0.000000,0.000000,0.000000,0.000000,0.000000,0.000000,0.000000,0.000000,0.000000,0.000000,0.000000,0.000000
482148227.844992,0.004776,-0.005814,-1.066086,0.000000,0.000000,0.000000,0.000000,0.000000,0.000000,0.000000,0.000000,0.000000,0.000000,0.000000,0.000000,0.000000,0.000000,0.000000,0.000000,0.000000,0.000000,0.000000,0.000000,0.000000,0.000000,0.000000,0.000000,0.000000,0.000000
482148227.856206,0.011826,-0.012848,-1.060181,0.000000,0.000000,0.000000,0.000000,0.000000,0.000000,0.000000,0.000000,0.000000,0.000000,0.000000,0.000000,0.000000,0.000000,0.000000,0.000000,0.000000,0.000000,0.000000,0.000000,0.000000,0.000000,0.000000,0.000000,0.000000,0.000000
482148227.870748,0.008850,-0.010834,-1.066071,0.000000,0.000000,0.000000,0.000000,0.000000,0.000000,0.000000,0.000000,0.000000,0.000000,0.000000,0.000000,0.000000,0.000000,0.000000,0.000000,0.000000,0.000000,0.000000,0.000000,0.000000,0.000000,0.000000,0.000000,0.000000,0.000000
482148227.875632,0.011765,-0.008911,-1.065079,0.000000,0.000000,0.000000,0.000000,0.000000,0.000000,0.000000,0.000000,0.000000,0.000000,0.000000,0.000000,0.000000,0.000000,0.000000,0.000000,0.000000,0.000000,0.000000,0.000000,0.000000,0.000000,0.000000,0.000000,0.000000,0.000000
482148227.886734,0.007797,-0.007874,-1.069031,0.000000,0.000000,0.000000,0.000000,0.000000,0.000000,0.000000,0.000000,0.000000,0.000000,0.000000,0.000000,0.000000,0.000000,0.000000,0.000000,0.000000,0.000000,0.000000,0.000000,0.000000,0.000000,0.000000,0.000000,0.000000,0.000000
482148227.950013,0.011810,-0.010895,-1.066055,0.000000,0.000000,0.000000,0.000000,0.000000,0.000000,0.000000,0.000000,0.000000,0.000000,0.000000,0.000000,0.000000,0.000000,0.000000,0.000000,0.000000,0.000000,0.000000,0.000000,0.000000,0.000000,0.000000,0.000000,0.000000,0.000000
482148227.956369,0.012711,-0.006958,-1.065048,0.000000,0.000000,0.000000,0.000000,0.000000,0.000000,0.000000,0.000000,0.000000,0.000000,0.000000,0.000000,0.000000,0.000000,0.000000,0.000000,0.000000,0.000000,0.000000,0.000000,0.000000,0.000000,0.000000,0.000000,0.000000,0.000000
482148227.966168,0.012756,-0.008911,-1.063095,0.000000,0.000000,0.000000,0.000000,0.000000,0.000000,0.000000,0.000000,0.000000,0.000000,0.000000,0.000000,0.000000,0.000000,0.000000,0.000000,0.000000,0.000000,0.000000,0.000000,0.000000,0.000000,0.000000,0.000000,0.000000,0.000000
482148227.984856,0.011627,-0.004913,-1.062134,0.000000,0.000000,0.000000,0.000000,0.000000,0.000000,0.000000,0.000000,0.000000,0.000000,0.000000,0.000000,0.000000,0.000000,0.000000,0.000000,0.000000,0.000000,0.000000,0.000000,0.000000,0.000000,0.000000,0.000000,0.000000,0.000000
482148228.005486,0.009857,-0.012833,-1.063126,0.000000,0.000000,0.000000,0.000000,0.000000,0.000000,0.000000,0.000000,0.000000,0.000000,0.000000,0.000000,0.000000,0.000000,0.000000,0.000000,0.000000,0.000000,0.000000,0.000000,0.000000,0.000000,0.000000,0.000000,0.000000,0.000000
482148228.016235,0.008865,-0.010849,-1.067062,0.000000,0.000000,0.000000,0.000000,0.000000,0.000000,0.000000,0.000000,0.000000,0.000000,0.000000,0.000000,0.000000,0.000000,0.000000,0.000000,0.000000,0.000000,0.000000,0.000000,0.000000,0.000000,0.000000,0.000000,0.000000,0.000000
482148228.032741,0.007828,-0.009857,-1.068039,0.000000,0.000000,0.000000,0.000000,0.000000,0.000000,0.000000,0.000000,0.000000,0.000000,0.000000,0.000000,0.000000,0.000000,0.000000,0.000000,0.000000,0.000000,0.000000,0.000000,0.000000,0.000000,0.000000,0.000000,0.000000,0.000000
482148228.035523,0.007828,-0.009857,-1.068039,0.000000,0.000000,0.000000,0.000000,0.000000,0.000000,0.000000,0.000000,0.000000,0.000000,0.000000,0.000000,0.000000,0.000000,0.000000,0.000000,0.000000,0.000000,0.000000,0.000000,0.000000,0.000000,0.000000,0.000000,0.000000,0.000000
482148228.046236,0.006836,-0.008804,-1.065109,0.000000,0.000000,0.000000,0.000000,0.000000,0.000000,0.000000,0.000000,0.000000,0.000000,0.000000,0.000000,0.000000,0.000000,0.000000,0.000000,0.000000,0.000000,0.000000,0.000000,0.000000,0.000000,0.000000,0.000000,0.000000,0.000000
482148228.056193,0.009781,-0.009857,-1.064117,0.000000,0.000000,0.000000,0.000000,0.000000,0.000000,0.000000,0.000000,0.000000,0.000000,0.000000,0.000000,0.000000,0.000000,0.000000,0.000000,0.000000,0.000000,0.000000,0.000000,0.000000,0.000000,0.000000,0.000000,0.000000,0.000000
482148228.076201,0.006775,-0.006836,-1.065094,0.000000,0.000000,0.000000,0.000000,0.000000,0.000000,0.000000,0.000000,0.000000,0.000000,0.000000,0.000000,0.000000,0.000000,0.000000,0.000000,0.000000,0.000000,0.000000,0.000000,0.000000,0.000000,0.000000,0.000000,0.000000,0.000000
482148228.088407,0.009735,-0.007858,-1.063126,0.000000,0.000000,0.000000,0.000000,0.000000,0.000000,0.000000,0.000000,0.000000,0.000000,0.000000,0.000000,0.000000,0.000000,0.000000,0.000000,0.000000,0.000000,0.000000,0.000000,0.000000,0.000000,0.000000,0.000000,0.000000,0.000000
482148228.095974,0.010803,-0.008896,-1.068024,0.000000,0.000000,0.000000,0.000000,0.000000,0.000000,0.000000,0.000000,0.000000,0.000000,0.000000,0.000000,0.000000,0.000000,0.000000,0.000000,0.000000,0.000000,0.000000,0.000000,0.000000,0.000000,0.000000,0.000000,0.000000,0.000000
482148228.106270,0.009842,-0.012817,-1.061172,0.000000,0.000000,0.000000,0.000000,0.000000,0.000000,0.000000,0.000000,0.000000,0.000000,0.000000,0.000000,0.000000,0.000000,0.000000,0.000000,0.000000,0.000000,0.000000,0.000000,0.000000,0.000000,0.000000,0.000000,0.000000,0.000000
482148228.126199,0.012756,-0.007950,-1.068008,0.000000,0.000000,0.000000,0.000000,0.000000,0.000000,0.000000,0.000000,0.000000,0.000000,0.000000,0.000000,0.000000,0.000000,0.000000,0.000000,0.000000,0.000000,0.000000,0.000000,0.000000,0.000000,0.000000,0.000000,0.000000,0.000000
482148228.140631,0.007904,-0.013794,-1.064117,0.000000,0.000000,0.000000,0.000000,0.000000,0.000000,0.000000,0.000000,0.000000,0.000000,0.000000,0.000000,0.000000,0.000000,0.000000,0.000000,0.000000,0.000000,0.000000,0.000000,0.000000,0.000000,0.000000,0.000000,0.000000,0.000000
482148228.145744,0.009766,-0.007889,-1.068039,0.000000,0.000000,0.000000,0.000000,0.000000,0.000000,0.000000,0.000000,0.000000,0.000000,0.000000,0.000000,0.000000,0.000000,0.000000,0.000000,0.000000,0.000000,0.000000,0.000000,0.000000,0.000000,0.000000,0.000000,0.000000,0.000000
482148228.167276,0.008850,-0.010834,-1.065094,0.000000,0.000000,0.000000,0.000000,0.000000,0.000000,0.000000,0.000000,0.000000,0.000000,0.000000,0.000000,0.000000,0.000000,0.000000,0.000000,0.000000,0.000000,0.000000,0.000000,0.000000,0.000000,0.000000,0.000000,0.000000,0.000000
482148228.176113,0.008789,-0.009827,-1.062164,0.000000,0.000000,0.000000,0.000000,0.000000,0.000000,0.000000,0.000000,0.000000,0.000000,0.000000,0.000000,0.000000,0.000000,0.000000,0.000000,0.000000,0.000000,0.000000,0.000000,0.000000,0.000000,0.000000,0.000000,0.000000,0.000000
482148228.186192,0.009796,-0.010803,-1.060196,0.000000,0.000000,0.000000,0.000000,0.000000,0.000000,0.000000,0.000000,0.000000,0.000000,0.000000,0.000000,0.000000,0.000000,0.000000,0.000000,0.000000,0.000000,0.000000,0.000000,0.000000,0.000000,0.000000,0.000000,0.000000,0.000000
482148228.201585,0.010727,-0.005936,-1.067032,0.000000,0.000000,0.000000,0.000000,0.000000,0.000000,0.000000,0.000000,0.000000,0.000000,0.000000,0.000000,0.000000,0.000000,0.000000,0.000000,0.000000,0.000000,0.000000,0.000000,0.000000,0.000000,0.000000,0.000000,0.000000,0.000000
482148228.205944,0.009857,-0.012833,-1.064117,0.000000,0.000000,0.000000,0.000000,0.000000,0.000000,0.000000,0.000000,0.000000,0.000000,0.000000,0.000000,0.000000,0.000000,0.000000,0.000000,0.000000,0.000000,0.000000,0.000000,0.000000,0.000000,0.000000,0.000000,0.000000,0.000000
482148228.220105,0.008835,-0.010818,-1.064117,0.000000,0.000000,0.000000,0.000000,0.000000,0.000000,0.000000,0.000000,0.000000,0.000000,0.000000,0.000000,0.000000,0.000000,0.000000,0.000000,0.000000,0.000000,0.000000,0.000000,0.000000,0.000000,0.000000,0.000000,0.000000,0.000000
482148228.225824,0.008835,-0.010818,-1.064117,0.000000,0.000000,0.000000,0.000000,0.000000,0.000000,0.000000,0.000000,0.000000,0.000000,0.000000,0.000000,0.000000,0.000000,0.000000,0.000000,0.000000,0.000000,0.000000,0.000000,0.000000,0.000000,0.000000,0.000000,0.000000,0.000000
482148228.237162,0.012833,-0.011917,-1.066040,0.000000,0.000000,0.000000,0.000000,0.000000,0.000000,0.000000,0.000000,0.000000,0.000000,0.000000,0.000000,0.000000,0.000000,0.000000,0.000000,0.000000,0.000000,0.000000,0.000000,0.000000,0.000000,0.000000,0.000000,0.000000,0.000000
482148228.249976,0.011749,-0.007935,-1.067047,0.000000,0.000000,0.000000,0.000000,0.000000,0.000000,0.000000,0.000000,0.000000,0.000000,0.000000,0.000000,0.000000,0.000000,0.000000,0.000000,0.000000,0.000000,0.000000,0.000000,0.000000,0.000000,0.000000,0.000000,0.000000,0.000000
482148228.255769,0.009689,-0.005890,-1.064102,0.000000,0.000000,0.000000,0.000000,0.000000,0.000000,0.000000,0.000000,0.000000,0.000000,0.000000,0.000000,0.000000,0.000000,0.000000,0.000000,0.000000,0.000000,0.000000,0.000000,0.000000,0.000000,0.000000,0.000000,0.000000,0.000000
482148228.275076,0.007767,-0.008804,-1.062164,0.000000,0.000000,0.000000,0.000000,0.000000,0.000000,0.000000,0.000000,0.000000,0.000000,0.000000,0.000000,0.000000,0.000000,0.000000,0.000000,0.000000,0.000000,0.000000,0.000000,0.000000,0.000000,0.000000,0.000000,0.000000,0.000000
482148228.286214,0.010773,-0.008865,-1.064102,0.000000,0.000000,0.000000,0.000000,0.000000,0.000000,0.000000,0.000000,0.000000,0.000000,0.000000,0.000000,0.000000,0.000000,0.000000,0.000000,0.000000,0.000000,0.000000,0.000000,0.000000,0.000000,0.000000,0.000000,0.000000,0.000000
482148228.300973,0.008774,-0.008804,-1.060196,0.000000,0.000000,0.000000,0.000000,0.000000,0.000000,0.000000,0.000000,0.000000,0.000000,0.000000,0.000000,0.000000,0.000000,0.000000,0.000000,0.000000,0.000000,0.000000,0.000000,0.000000,0.000000,0.000000,0.000000,0.000000,0.000000
482148228.306719,0.010773,-0.008865,-1.063110,0.000000,0.000000,0.000000,0.000000,0.000000,0.000000,0.000000,0.000000,0.000000,0.000000,0.000000,0.000000,0.000000,0.000000,0.000000,0.000000,0.000000,0.000000,0.000000,0.000000,0.000000,0.000000,0.000000,0.000000,0.000000,0.000000
482148228.332235,0.008896,-0.013779,-1.060196,0.009384,0.009854,-0.000016,0.999956,0.000076,-0.009383,0.000016,0.999951,0.009854,0.009383,-0.009853,0.999907,0.009383,-0.009854,-0.999907,0.001390,0.000988,-0.063203,0.008440,-0.002667,0.002303,0.000000,0.000000,0.000000,0.000000,0.000000
482148228.335465,0.008896,-0.013779,-1.060196,0.009384,0.009854,-0.000016,0.999956,0.000076,-0.009383,0.000016,0.999951,0.009854,0.009383,-0.009853,0.999907,0.009383,-0.009854,-0.999907,0.001390,0.000988,-0.063203,0.008440,-0.002667,0.002303,0.000000,0.000000,0.000000,0.000000,0.000000
482148228.351527,0.009918,-0.013855,-1.067062,0.008996,0.009902,-0.000026,0.999960,0.000063,-0.008995,0.000026,0.999951,0.009902,0.008995,-0.009902,0.999911,0.008995,-0.009902,-0.999911,-0.003105,-0.000871,-0.066175,-0.001414,-0.001614,-0.001433,0.000000,0.000000,0.000000,0.000000,0.000000
482148228.355807,0.009918,-0.013855,-1.067062,0.008996,0.009902,-0.000026,0.999960,0.000063,-0.008995,0.000026,0.999951,0.009902,0.008995,-0.009902,0.999911,0.008995,-0.009902,-0.999911,-0.003105,-0.000871,-0.066175,-0.001414,-0.001614,-0.001433,0.000000,0.000000,0.000000,0.000000,0.000000
482148228.366447,0.007797,-0.007874,-1.069031,0.008946,0.010278,0.000006,0.999960,0.000098,-0.008946,-0.000006,0.999947,0.010278,0.008946,-0.010277,0.999907,0.008946,-0.010278,-0.999907,-0.000050,-0.003501,-0.060289,0.007209,0.000788,0.002303,0.000000,0.000000,0.000000,0.000000,0.000000
482148228.379108,0.012817,-0.011902,-1.064087,0.009160,0.009974,0.000116,0.999958,0.000207,-0.009160,-0.000116,0.999950,0.009974,0.009161,-0.009972,0.999908,0.009160,-0.009974,-0.999908,0.002528,0.004023,-0.065155,0.007172,0.004347,0.013388,0.000000,0.000000,0.000000,0.000000,0.000000
482148228.387880,0.007782,-0.008820,-1.064117,0.009077,0.010075,0.000143,0.999959,0.000234,-0.009076,-0.000143,0.999949,0.010075,0.009078,-0.010073,0.999908,0.009076,-0.010075,-0.999908,-0.001279,0.002201,-0.069123,0.005981,0.003068,-0.000161,0.000000,0.000000,0.000000,0.000000,0.000000
482148228.398284,0.009781,-0.009857,-1.063126,0.009077,0.010075,0.000143,0.999959,0.000234,-0.009076,-0.000143,0.999949,0.010075,0.009078,-0.010073,0.999908,0.009076,-0.010075,-0.999908,-0.001279,0.002201,-0.069123,0.005981,0.003068,-0.000161,0.000000,0.000000,0.000000,0.000000,0.000000
482148228.405969,0.010803,-0.008896,-1.067047,0.009289,0.010170,0.000145,0.999957,0.000239,-0.009288,-0.000145,0.999948,0.010170,0.009290,-0.010168,0.999905,0.009288,-0.010170,-0.999905,0.003529,-0.001732,-0.064182,0.004741,0.000773,0.002292,0.000000,0.000000,0.000000,0.000000,0.000000
482148228.417398,0.007706,-0.006836,-1.062149,0.009129,0.010031,0.000274,0.999958,0.000365,-0.009128,-0.000274,0.999950,0.010031,0.009131,-0.010028,0.999908,0.009128,-0.010031,-0.999908,0.000653,0.000174,-0.063218,-0.001442,-0.007325,0.005944,0.000000,0.000000,0.000000,0.000000,0.000000
482148228.432814,0.009781,-0.008865,-1.066071,0.009158,0.009954,0.000385,0.999958,0.000476,-0.009157,-0.000385,0.999950,0.009954,0.009162,-0.009950,0.999909,0.009157,-0.009954,-0.999909,0.001646,0.001058,-0.067139,0.002241,-0.001482,0.010894,0.000000,0.000000,0.000000,0.000000,0.000000
482148228.436080,0.008865,-0.010849,-1.068039,0.009158,0.009954,0.000385,0.999958,0.000476,-0.009157,-0.000385,0.999950,0.009954,0.009162,-0.009950,0.999909,0.009157,-0.009954,-0.999909,0.001646,0.001058,-0.067139,0.002241,-0.001482,0.010894,0.000000,0.000000,0.000000,0.000000,0.000000
482148228.450003,0.009811,-0.010834,-1.064117,0.009044,0.009828,0.000400,0.999959,0.000489,-0.009044,-0.000400,0.999952,0.009828,0.009048,-0.009824,0.999911,0.009044,-0.009828,-0.999911,-0.001338,0.002992,-0.062238,0.003499,0.000761,0.002286,0.000000,0.000000,0.000000,0.000000,0.000000
482148228.455771,0.009811,-0.010834,-1.064117,0.009044,0.009828,0.000400,0.999959,0.000489,-0.009044,-0.000400,0.999952,0.009828,0.009048,-0.009824,0.999911,0.009044,-0.009828,-0.999911,-0.001338,0.002992,-0.062238,0.003499,0.000761,0.002286,0.000000,0.000000,0.000000,0.000000,0.000000
482148228.482375,0.010818,-0.010849,-1.064102,0.009024,0.009849,0.000472,0.999959,0.000561,-0.009023,-0.000472,0.999951,0.009849,0.009029,-0.009844,0.999911,0.009023,-0.009849,-0.999911,0.000788,-0.000985,-0.064207,0.004704,0.000843,0.010909,0.000000,0.000000,0.000000,0.000000,0.000000
482148228.485583,0.010818,-0.010849,-1.064102,0.009024,0.009849,0.000472,0.999959,0.000561,-0.009023,-0.000472,0.999951,0.009849,0.009029,-0.009844,0.999911,0.009023,-0.009849,-0.999911,0.000788,-0.000985,-0.064207,0.004704,0.000843,0.010909,0.000000,0.000000,0.000000,0.000000,0.000000
482148228.496903,0.009705,-0.005905,-1.065079,0.008921,0.009812,0.000549,0.999960,0.000636,-0.008920,-0.000549,0.999952,0.009811,0.008926,-0.009806,0.999912,0.008920,-0.009811,-0.999912,-0.001153,0.001007,-0.062252,-0.001450,-0.003865,0.005949,0.000000,0.000000,0.000000,0.000000,0.000000
482148228.509174,0.013687,-0.006973,-1.066025,0.008926,0.009825,0.000635,0.999960,0.000722,-0.008925,-0.000635,0.999952,0.009824,0.008932,-0.009818,0.999912,0.008925,-0.009824,-0.999912,0.001893,-0.001025,-0.064190,0.001022,0.004226,0.004742,0.000000,0.000000,0.000000,0.000000,0.000000
482148228.516368,0.008865,-0.011841,-1.066071,0.008926,0.009825,0.000635,0.999960,0.000722,-0.008925,-0.000635,0.999952,0.009824,0.008932,-0.009818,0.999912,0.008925,-0.009824,-0.999912,0.001893,-0.001025,-0.064190,0.001022,0.004226,0.004742,0.000000,0.000000,0.000000,0.000000,0.000000
482148228.528155,0.006775,-0.006836,-1.065094,0.008905,0.009817,0.000681,0.999960,0.000768,-0.008904,-0.000681,0.999952,0.009817,0.008911,-0.009810,0.999912,0.008904,-0.009817,-0.999912,0.001914,-0.001032,-0.064190,-0.002680,-0.003884,0.004712,0.000000,0.000000,0.000000,0.000000,0.000000
482148228.536701,0.010864,-0.012848,-1.064102,0.009102,0.009512,0.000879,0.999958,0.000966,-0.009102,-0.000879,0.999954,0.009511,0.009111,-0.009503,0.999913,0.009102,-0.009511,-0.999913,0.004585,0.002538,-0.066111,-0.002704,-0.002691,0.008407,0.000000,0.000000,0.000000,0.000000,0.000000
482148228.546557,0.010864,-0.012848,-1.064102,0.009102,0.009512,0.000879,0.999958,0.000966,-0.009102,-0.000879,0.999954,0.009511,0.009111,-0.009503,0.999913,0.009102,-0.009511,-0.999913,0.004585,0.002538,-0.066111,-0.002704,-0.002691,0.008407,0.000000,0.000000,0.000000,0.000000,0.000000
482148228.555999,0.007736,-0.005890,-1.067047,0.009090,0.009571,0.000931,0.999958,0.001018,-0.009090,-0.000931,0.999954,0.009571,0.009099,-0.009562,0.999913,0.009090,-0.009571,-0.999913,-0.000225,-0.002270,-0.066158,-0.001443,0.001872,0.001034,0.000000,0.000000,0.000000,0.000000,0.000000
482148228.566435,0.011719,-0.006958,-1.068008,0.009097,0.009621,0.001024,0.999958,0.001111,-0.009096,-0.001024,0.999953,0.009621,0.009106,-0.009611,0.999912,0.009096,-0.009621,-0.999912,0.001768,-0.003227,-0.064190,0.009630,0.010105,0.009714,0.000000,0.000000,0.000000,0.000000,0.000000
482148228.578687,0.009796,-0.008881,-1.067062,0.009097,0.009621,0.001024,0.999958,0.001111,-0.009096,-0.001024,0.999953,0.009621,0.009106,-0.009611,0.999912,0.009096,-0.009621,-0.999912,0.001768,-0.003227,-0.064190,0.009630,0.010105,0.009714,0.000000,0.000000,0.000000,0.000000,0.000000
482148228.586107,0.011810,-0.011887,-1.063110,0.009061,0.009563,0.001112,0.999958,0.001199,-0.009060,-0.001112,0.999954,0.009563,0.009071,-0.009552,0.999913,0.009060,-0.009563,-0.999913,-0.001324,0.003673,-0.067134,0.005924,0.003136,0.008456,0.000000,0.000000,0.000000,0.000000,0.000000
482148228.596411,0.008759,-0.006897,-1.067047,0.009091,0.009496,0.001257,0.999958,0.001343,-0.009090,-0.001257,0.999954,0.009495,0.009102,-0.009484,0.999914,0.009090,-0.009495,-0.999914,0.002629,0.002537,-0.068095,0.000984,-0.000359,0.008427,0.000000,0.000000,0.000000,0.000000,0.000000
482148228.607274,0.011780,-0.009918,-1.065079,0.009028,0.009496,0.001303,0.999958,0.001388,-0.009027,-0.001303,0.999954,0.009496,0.009040,-0.009484,0.999914,0.009027,-0.009496,-0.999914,0.000769,0.000615,-0.067148,0.002233,-0.007331,0.002267,0.000000,0.000000,0.000000,0.000000,0.000000
482148228.616375,0.008728,-0.006866,-1.064102,0.009028,0.009496,0.001303,0.999958,0.001388,-0.009027,-0.001303,0.999954,0.009496,0.009040,-0.009484,0.999914,0.009027,-0.009496,-0.999914,0.000769,0.000615,-0.067148,0.002233,-0.007331,0.002267,0.000000,0.000000,0.000000,0.000000,0.000000
482148228.626406,0.008728,-0.006866,-1.064102,0.009033,0.009660,0.001453,0.999958,0.001540,-0.009032,-0.001453,0.999952,0.009660,0.009047,-0.009647,0.999913,0.009032,-0.009660,-0.999913,-0.000274,0.002763,-0.067135,0.008384,-0.004944,0.005992,0.000000,0.000000,0.000000,0.000000,0.000000
482148228.637136,0.007828,-0.009857,-1.068039,0.009100,0.009688,0.001456,0.999957,0.001545,-0.009099,-0.001456,0.999952,0.009688,0.009114,-0.009674,0.999912,0.009099,-0.009688,-0.999912,0.002681,-0.000230,-0.065167,0.002239,0.003048,-0.000179,0.000000,0.000000,0.000000,0.000000,0.000000
482148228.646671,0.007828,-0.009857,-1.068039,0.009100,0.009688,0.001456,0.999957,0.001545,-0.009099,-0.001456,0.999952,0.009688,0.009114,-0.009674,0.999912,0.009099,-0.009688,-0.999912,0.002681,-0.000230,-0.065167,0.002239,0.003048,-0.000179,0.000000,0.000000,0.000000,0.000000,0.000000
482148228.655635,0.011810,-0.010895,-1.065079,0.009149,0.009727,0.001511,0.999957,0.001600,-0.009148,-0.001511,0.999952,0.009726,0.009163,-0.009712,0.999911,0.009148,-0.009726,-0.999911,0.004585,0.000800,-0.064176,0.010832,-0.001429,0.008470,0.000000,0.000000,0.000000,0.000000,0.000000
482148228.666329,0.007812,-0.009842,-1.065094,0.009057,0.009774,0.001569,0.999958,0.001657,-0.009057,-0.001569,0.999951,0.009774,0.009072,-0.009760,0.999911,0.009057,-0.009774,-0.999911,-0.001229,-0.000083,-0.068128,0.004675,-0.004973,0.004743,0.000000,0.000000,0.000000,0.000000,0.000000
482148228.676627,0.009750,-0.007874,-1.065094,0.009057,0.009774,0.001569,0.999958,0.001657,-0.009057,-0.001569,0.999951,0.009774,0.009072,-0.009760,0.999911,0.009057,-0.009774,-0.999911,-0.001229,-0.000083,-0.068128,0.004675,-0.004973,0.004743,0.000000,0.000000,0.000000,0.000000,0.000000
482148228.686318,0.010696,-0.006882,-1.062134,0.009082,0.009854,0.001546,0.999957,0.001636,-0.009082,-0.001546,0.999950,0.009854,0.009097,-0.009840,0.999910,0.009082,-0.009854,-0.999910,0.002729,-0.001041,-0.065169,0.004701,-0.001566,-0.002638,0.000000,0.000000,0.000000,0.000000,0.000000
482148228.696418,0.010773,-0.008865,-1.064102,0.009033,0.009852,0.001581,0.999958,0.001670,-0.009032,-0.001581,0.999950,0.009852,0.009048,-0.009837,0.999911,0.009032,-0.009852,-0.999911,-0.001220,0.000010,-0.065183,-0.000269,0.003107,0.008427,0.000000,0.000000,0.000000,0.000000,0.000000
482148228.706595,0.008820,-0.008865,-1.068039,0.009033,0.009852,0.001581,0.999958,0.001670,-0.009032,-0.001581,0.999950,0.009852,0.009048,-0.009837,0.999911,0.009032,-0.009852,-0.999911,-0.001220,0.000010,-0.065183,-0.000269,0.003107,0.008427,0.000000,0.000000,0.000000,0.000000,0.000000
482148228.716042,0.011749,-0.008896,-1.064102,0.009063,0.009735,0.001684,0.999957,0.001772,-0.009063,-0.001684,0.999951,0.009735,0.009080,-0.009719,0.999912,0.009063,-0.009735,-0.999912,0.001634,0.002853,-0.062222,-0.002713,-0.000476,-0.003901,0.000000,0.000000,0.000000,0.000000,0.000000
482148228.726349,0.010834,-0.010864,-1.065079,0.009084,0.009699,0.001700,0.999957,0.001788,-0.009083,-0.001700,0.999952,0.009699,0.009100,-0.009683,0.999912,0.009083,-0.009699,-0.999912,0.001690,0.000834,-0.064190,0.002205,0.000749,-0.000184,0.000000,0.000000,0.000000,0.000000,0.000000
482148228.738480,0.010834,-0.010864,-1.065079,0.009084,0.009699,0.001700,0.999957,0.001788,-0.009083,-0.001700,0.999952,0.009699,0.009100,-0.009683,0.999912,0.009083,-0.009699,-0.999912,0.001690,0.000834,-0.064190,0.002205,0.000749,-0.000184,0.000000,0.000000,0.000000,0.000000,0.000000
482148228.746006,0.008865,-0.010849,-1.068039,0.009037,0.009817,0.001761,0.999957,0.001850,-0.009037,-0.001761,0.999950,0.009817,0.009054,-0.009800,0.999911,0.009037,-0.009817,-0.999911,-0.000217,0.000951,-0.068128,0.007118,-0.000332,0.004761,0.000000,0.000000,0.000000,0.000000,0.000000
482148228.756313,0.012726,-0.007919,-1.064087,0.009111,0.009822,0.001789,0.999957,0.001878,-0.009110,-0.001789,0.999950,0.009822,0.009128,-0.009805,0.999910,0.009110,-0.009822,-0.999910,0.002639,0.000926,-0.064192,0.003423,0.004246,0.002290,0.000000,0.000000,0.000000,0.000000,0.000000
482148228.767272,0.009796,-0.010803,-1.060196,0.009111,0.009822,0.001789,0.999957,0.001878,-0.009110,-0.001789,0.999950,0.009822,0.009128,-0.009805,0.999910,0.009110,-0.009822,-0.999910,0.002639,0.000926,-0.064192,0.003423,0.004246,0.002290,0.000000,0.000000,0.000000,0.000000,0.000000
482148228.776411,0.013779,-0.009964,-1.067032,0.009182,0.009884,0.001875,0.999956,0.001965,-0.009181,-0.001875,0.999949,0.009883,0.009200,-0.009866,0.999909,0.009181,-0.009883,-0.999909,-0.000316,-0.000966,-0.068130,0.003405,0.005453,0.008446,0.000000,0.000000,0.000000,0.000000,0.000000
482148228.787162,0.011871,-0.013870,-1.063110,0.009257,0.009847,0.001956,0.999955,0.002047,-0.009256,-0.001956,0.999950,0.009847,0.009276,-0.009828,0.999909,0.009256,-0.009847,-0.999909,0.003470,0.001928,-0.064178,0.000927,0.004300,0.009664,0.000000,0.000000,0.000000,0.000000,0.000000
482148228.796827,0.007858,-0.010834,-1.067062,0.009257,0.009847,0.001956,0.999955,0.002047,-0.009256,-0.001956,0.999950,0.009847,0.009276,-0.009828,0.999909,0.009256,-0.009847,-0.999909,0.003470,0.001928,-0.064178,0.000927,0.004300,0.009664,0.000000,0.000000,0.000000,0.000000,0.000000
482148228.806347,0.009872,-0.013809,-1.062164,0.009414,0.009873,0.001963,0.999954,0.002056,-0.009414,-0.001963,0.999949,0.009873,0.009434,-0.009854,0.999907,0.009414,-0.009873,-0.999907,0.004365,-0.000091,-0.067125,0.007126,-0.004977,-0.001401,0.000000,0.000000,0.000000,0.000000,0.000000
482148228.816373,0.010757,-0.007889,-1.066055,0.009439,0.009988,0.002014,0.999953,0.002108,-0.009439,-0.002014,0.999948,0.009987,0.009459,-0.009968,0.999906,0.009439,-0.009987,-0.999906,0.002433,-0.003883,-0.063205,0.000955,0.000802,0.003504,0.000000,0.000000,0.000000,0.000000,0.000000
482148228.826735,0.010803,-0.010818,-1.060181,0.009401,0.010052,0.002005,0.999954,0.002099,-0.009401,-0.002005,0.999947,0.010052,0.009421,-0.010033,0.999905,0.009401,-0.010052,-0.999905,-0.001542,-0.000782,-0.067157,-0.002748,0.000779,0.004718,0.000000,0.000000,0.000000,0.000000,0.000000
482148228.836424,0.007751,-0.007828,-1.064117,0.009401,0.010052,0.002005,0.999954,0.002099,-0.009401,-0.002005,0.999947,0.010052,0.009421,-0.010033,0.999905,0.009401,-0.010052,-0.999905,-0.001542,-0.000782,-0.067157,-0.002748,0.000779,0.004718,0.000000,0.000000,0.000000,0.000000,0.000000
482148228.846464,0.007751,-0.007828,-1.064117,0.009412,0.010143,0.002069,0.999953,0.002164,-0.009411,-0.002069,0.999946,0.010143,0.009432,-0.010123,0.999904,0.009411,-0.010143,-0.999904,0.000461,-0.003666,-0.062260,0.003421,0.000843,0.007208,0.000000,0.000000,0.000000,0.000000,0.000000
482148228.856223,0.007904,-0.011856,-1.070984,0.009463,0.010103,0.002148,0.999953,0.002244,-0.009463,-0.002148,0.999947,0.010103,0.009485,-0.010082,0.999904,0.009463,-0.010103,-0.999904,0.001341,-0.000716,-0.060276,0.002187,0.005437,0.004747,0.000000,0.000000,0.000000,0.000000,0.000000
482148228.866891,0.009796,-0.009872,-1.065094,0.009463,0.010103,0.002148,0.999953,0.002244,-0.009463,-0.002148,0.999947,0.010103,0.009485,-0.010082,0.999904,0.009463,-0.010103,-0.999904,0.001341,-0.000716,-0.060276,0.002187,0.005437,0.004747,0.000000,0.000000,0.000000,0.000000,0.000000
482148228.876059,0.010895,-0.012878,-1.068024,0.009412,0.010057,0.002225,0.999953,0.002319,-0.009411,-0.002224,0.999947,0.010057,0.009434,-0.010036,0.999905,0.009411,-0.010057,-0.999905,-0.001659,0.002229,-0.064212,0.002156,0.000863,0.010895,0.000000,0.000000,0.000000,0.000000,0.000000
482148228.886429,0.005844,-0.009781,-1.064133,0.009340,0.010076,0.002395,0.999953,0.002489,-0.009339,-0.002395,0.999946,0.010076,0.009364,-0.010053,0.999906,0.009339,-0.010076,-0.999906,0.000457,0.000203,-0.065188,0.003396,0.005472,0.009677,0.000000,0.000000,0.000000,0.000000,0.000000
482148228.896595,0.010864,-0.010895,-1.069977,0.009340,0.010076,0.002395,0.999953,0.002489,-0.009339,-0.002395,0.999946,0.010076,0.009364,-0.010053,0.999906,0.009339,-0.010076,-0.999906,0.000457,0.000203,-0.065188,0.003396,0.005472,0.009677,0.000000,0.000000,0.000000,0.000000,0.000000
482148228.906427,0.010818,-0.010849,-1.063110,0.009356,0.010181,0.002464,0.999953,0.002559,-0.009356,-0.002464,0.999945,0.010181,0.009381,-0.010157,0.999904,0.009356,-0.010181,-0.999904,0.001539,-0.002698,-0.068119,0.005875,-0.002612,0.007213,0.000000,0.000000,0.000000,0.000000,0.000000
482148228.925570,0.010773,-0.008865,-1.064102,0.009216,0.010234,0.002545,0.999954,0.002639,-0.009216,-0.002545,0.999944,0.010234,0.009242,-0.010210,0.999905,0.009216,-0.010234,-0.999905,-0.003372,0.000453,-0.064228,0.003424,-0.005005,0.001043,0.000000,0.000000,0.000000,0.000000,0.000000
482148228.936312,0.008865,-0.010849,-1.067062,0.009201,0.010255,0.002590,0.999954,0.002685,-0.009201,-0.002590,0.999944,0.010254,0.009228,-0.010230,0.999905,0.009201,-0.010254,-0.999905,0.001664,-0.000640,-0.070072,0.000938,-0.004967,0.007187,0.000000,0.000000,0.000000,0.000000,0.000000
482148228.946835,0.010742,-0.007874,-1.064102,0.009223,0.010391,0.002657,0.999954,0.002753,-0.009223,-0.002657,0.999942,0.010390,0.009251,-0.010365,0.999904,0.009223,-0.010390,-0.999904,0.002664,-0.003495,-0.066152,0.003435,-0.003835,0.001045,0.000000,0.000000,0.000000,0.000000,0.000000
482148228.959585,0.007736,-0.007812,-1.062164,0.009246,0.010351,0.002679,0.999953,0.002775,-0.009245,-0.002679,0.999943,0.010351,0.009274,-0.010326,0.999904,0.009245,-0.010351,-0.999904,0.001527,0.001486,-0.064198,0.000965,-0.000396,-0.000192,0.000000,0.000000,0.000000,0.000000,0.000000
482148228.965999,0.007736,-0.007812,-1.062164,0.009246,0.010351,0.002679,0.999953,0.002775,-0.009245,-0.002679,0.999943,0.010351,0.009274,-0.010326,0.999904,0.009245,-0.010351,-0.999904,0.001527,0.001486,-0.064198,0.000965,-0.000396,-0.000192,0.000000,0.000000,0.000000,0.000000,0.000000
482148228.976395,0.015640,-0.004059,-1.067001,0.009253,0.010439,0.002728,0.999953,0.002825,-0.009252,-0.002728,0.999942,0.010439,0.009281,-0.010413,0.999903,0.009252,-0.010439,-0.999903,0.001490,0.002565,-0.064199,0.010805,-0.003759,0.003540,0.000000,0.000000,0.000000,0.000000,0.000000
482148228.987056,0.008911,-0.013809,-1.063126,0.009205,0.010532,0.002792,0.999953,0.002889,-0.009204,-0.002792,0.999941,0.010532,0.009234,-0.010506,0.999902,0.009204,-0.010532,-0.999902,0.001538,0.002659,-0.064200,0.005850,-0.008361,0.009666,0.000000,0.000000,0.000000,0.000000,0.000000
482148228.996822,0.010788,-0.009872,-1.064102,0.009205,0.010532,0.002792,0.999953,0.002889,-0.009204,-0.002792,0.999941,0.010532,0.009234,-0.010506,0.999902,0.009204,-0.010532,-0.999902,0.001538,0.002659,-0.064200,0.005850,-0.008361,0.009666,0.000000,0.000000,0.000000,0.000000,0.000000
482148229.006279,0.010849,-0.011871,-1.066055,0.009291,0.010287,0.002955,0.999952,0.003050,-0.009290,-0.002955,0.999943,0.010287,0.009321,-0.010259,0.999904,0.009290,-0.010287,-0.999904,0.006350,0.006228,-0.067097,0.000887,0.000836,0.007195,0.000000,0.000000,0.000000,0.000000,0.000000
482148229.016571,0.008896,-0.013794,-1.062164,0.009299,0.010352,0.003043,0.999952,0.003139,-0.009299,-0.003043,0.999942,0.010352,0.009331,-0.010324,0.999903,0.009299,-0.010352,-0.999903,-0.000388,-0.003457,-0.063222,-0.001568,0.003124,0.007188,0.000000,0.000000,0.000000,0.000000,0.000000
482148229.026444,0.008911,-0.013809,-1.064117,0.009299,0.010352,0.003043,0.999952,0.003139,-0.009299,-0.003043,0.999942,0.010352,0.009331,-0.010324,0.999903,0.009299,-0.010352,-0.999903,-0.000388,-0.003457,-0.063222,-0.001568,0.003124,0.007188,0.000000,0.000000,0.000000,0.000000,0.000000
482148229.036554,0.011688,-0.005951,-1.066040,0.009380,0.010312,0.003237,0.999950,0.003333,-0.009379,-0.003236,0.999942,0.010312,0.009413,-0.010281,0.999903,0.009379,-0.010312,-0.999903,0.001470,-0.001560,-0.066152,-0.005286,-0.002627,0.012086,0.000000,0.000000,0.000000,0.000000,0.000000
482148229.047479,0.006927,-0.012787,-1.065109,0.009375,0.010383,0.003343,0.999950,0.003440,-0.009374,-0.003343,0.999941,0.010383,0.009409,-0.010351,0.999902,0.009374,-0.010383,-0.999902,-0.000478,-0.003411,-0.062262,0.004597,0.002047,0.010908,0.000000,0.000000,0.000000,0.000000,0.000000
482148229.056583,0.006927,-0.012787,-1.065109,0.009375,0.010383,0.003343,0.999950,0.003440,-0.009374,-0.003343,0.999941,0.010383,0.009409,-0.010351,0.999902,0.009374,-0.010383,-0.999902,-0.000478,-0.003411,-0.062262,0.004597,0.002047,0.010908,0.000000,0.000000,0.000000,0.000000,0.000000
482148229.066044,0.011719,-0.006958,-1.068008,0.009266,0.010490,0.003363,0.999951,0.003460,-0.009266,-0.003363,0.999939,0.010490,0.009302,-0.010458,0.999902,0.009266,-0.010490,-0.999902,-0.000355,-0.003320,-0.064215,0.008338,-0.004943,0.001065,0.000000,0.000000,0.000000,0.000000,0.000000
482148229.076411,0.005981,-0.014755,-1.066086,0.009313,0.010398,0.003354,0.999951,0.003451,-0.009312,-0.003354,0.999940,0.010398,0.009348,-0.010366,0.999903,0.009312,-0.010398,-0.999903,0.002376,0.004447,-0.066137,0.004635,0.001925,-0.003865,0.000000,0.000000,0.000000,0.000000,0.000000
482148229.086361,0.012848,-0.011932,-1.067032,0.009313,0.010398,0.003354,0.999951,0.003451,-0.009312,-0.003354,0.999940,0.010398,0.009348,-0.010366,0.999903,0.009312,-0.010398,-0.999903,0.002376,0.004447,-0.066137,0.004635,0.001925,-0.003865,0.000000,0.000000,0.000000,0.000000,0.000000
482148229.096183,0.007828,-0.009857,-1.067062,0.009253,0.010382,0.003392,0.999951,0.003488,-0.009252,-0.003392,0.999940,0.010382,0.009288,-0.010350,0.999903,0.009252,-0.010382,-0.999903,0.002467,0.003424,-0.068105,-0.002813,-0.001503,0.007175,0.000000,0.000000,0.000000,0.000000,0.000000
482148229.106424,0.014862,-0.012955,-1.067017,0.009156,0.010426,0.003421,0.999952,0.003517,-0.009155,-0.003421,0.999940,0.010426,0.009191,-0.010394,0.999904,0.009155,-0.010426,-0.999904,-0.003174,-0.004329,-0.066182,-0.004015,-0.002724,0.002243,0.000000,0.000000,0.000000,0.000000,0.000000
482148229.117610,0.007797,-0.008835,-1.066071,0.009156,0.010426,0.003421,0.999952,0.003517,-0.009155,-0.003421,0.999940,0.010426,0.009191,-0.010394,0.999904,0.009155,-0.010426,-0.999904,-0.003174,-0.004329,-0.066182,-0.004015,-0.002724,0.002243,0.000000,0.000000,0.000000,0.000000,0.000000
482148229.126579,0.007919,-0.013809,-1.065094,0.009155,0.010453,0.003495,0.999952,0.003591,-0.009154,-0.003495,0.999939,0.010453,0.009191,-0.010420,0.999903,0.009154,-0.010453,-0.999903,-0.001326,0.000595,-0.067159,0.004597,-0.000296,0.008442,0.000000,0.000000,0.000000,0.000000,0.000000
482148229.136591,0.007919,-0.013809,-1.065094,0.009247,0.010559,0.003528,0.999951,0.003625,-0.009246,-0.003527,0.999938,0.010559,0.009284,-0.010526,0.999901,0.009246,-0.010559,-0.999901,0.005616,-0.002396,-0.067115,0.009550,-0.000271,0.004770,0.000000,0.000000,0.000000,0.000000,0.000000
482148229.147910,0.007797,-0.008835,-1.066071,0.009247,0.010559,0.003528,0.999951,0.003625,-0.009246,-0.003527,0.999938,0.010559,0.009284,-0.010526,0.999901,0.009246,-0.010559,-0.999901,0.005616,-0.002396,-0.067115,0.009550,-0.000271,0.004770,0.000000,0.000000,0.000000,0.000000,0.000000
482148229.155600,0.007797,-0.008835,-1.065094,0.009191,0.010508,0.003602,0.999951,0.003698,-0.009190,-0.003602,0.999938,0.010508,0.009228,-0.010475,0.999903,0.009190,-0.010508,-0.999903,-0.001393,0.001673,-0.066168,-0.001560,0.000796,0.004722,0.000000,0.000000,0.000000,0.000000,0.000000
482148229.166655,0.009796,-0.008881,-1.067062,0.009136,0.010543,0.003666,0.999951,0.003763,-0.009135,-0.003666,0.999938,0.010543,0.009175,-0.010509,0.999903,0.009135,-0.010543,-0.999903,-0.001216,-0.003267,-0.065191,0.000916,-0.006123,0.004722,0.000000,0.000000,0.000000,0.000000,0.000000
482148229.177068,0.011795,-0.009933,-1.067047,0.009136,0.010543,0.003666,0.999951,0.003763,-0.009135,-0.003666,0.999938,0.010543,0.009175,-0.010509,0.999903,0.009135,-0.010543,-0.999903,-0.001216,-0.003267,-0.065191,0.000916,-0.006123,0.004722,0.000000,0.000000,0.000000,0.000000,0.000000
482148229.186496,0.009628,-0.002930,-1.066055,0.008993,0.010484,0.003735,0.999952,0.003829,-0.008992,-0.003735,0.999938,0.010484,0.009032,-0.010450,0.999905,0.008992,-0.010484,-0.999905,-0.001195,0.001649,-0.065189,-0.001559,-0.001569,0.001025,0.000000,0.000000,0.000000,0.000000,0.000000
482148229.196285,0.012802,-0.011887,-1.062134,0.008994,0.010475,0.003739,0.999952,0.003833,-0.008993,-0.003739,0.999938,0.010475,0.009033,-0.010440,0.999905,0.008993,-0.010475,-0.999905,0.000803,0.001594,-0.067158,0.007065,0.003112,0.001072,0.000000,0.000000,0.000000,0.000000,0.000000
482148229.206687,0.010773,-0.008865,-1.064102,0.009070,0.010324,0.003698,0.999952,0.003792,-0.009069,-0.003698,0.999940,0.010324,0.009108,-0.010290,0.999906,0.009069,-0.010324,-0.999906,0.000559,0.007394,-0.066150,-0.000387,-0.001529,0.003492,0.000000,0.000000,0.000000,0.000000,0.000000
482148229.216189,0.009811,-0.010834,-1.064117,0.009070,0.010324,0.003698,0.999952,0.003792,-0.009069,-0.003698,0.999940,0.010324,0.009108,-0.010290,0.999906,0.009069,-0.010324,-0.999906,0.000559,0.007394,-0.066150,-0.000387,-0.001529,0.003492,0.000000,0.000000,0.000000,0.000000,0.000000
482148229.226383,0.010773,-0.008865,-1.064102,0.009054,0.010291,0.003757,0.999952,0.003850,-0.009054,-0.003756,0.999940,0.010291,0.009093,-0.010256,0.999906,0.009054,-0.010291,-0.999906,0.000575,0.007361,-0.066149,-0.004094,0.000775,0.005941,0.000000,0.000000,0.000000,0.000000,0.000000
482148229.235620,0.010773,-0.008865,-1.064102,0.009148,0.010385,0.003817,0.999951,0.003912,-0.009147,-0.003817,0.999939,0.010385,0.009187,-0.010349,0.999904,0.009147,-0.010385,-0.999904,0.001625,0.001519,-0.064198,0.005791,0.000801,-0.001401,0.000000,0.000000,0.000000,0.000000,0.000000
482148229.246490,0.011841,-0.011917,-1.068024,0.009148,0.010385,0.003817,0.999951,0.003912,-0.009147,-0.003817,0.999939,0.010385,0.009187,-0.010349,0.999904,0.009147,-0.010385,-0.999904,0.001625,0.001519,-0.064198,0.005791,0.000801,-0.001401,0.000000,0.000000,0.000000,0.000000,0.000000
482148229.256196,0.011749,-0.008896,-1.064102,0.009134,0.010317,0.003839,0.999951,0.003933,-0.009133,-0.003839,0.999939,0.010316,0.009174,-0.010281,0.999905,0.009133,-0.010316,-0.999905,0.000678,-0.000517,-0.064212,-0.006551,-0.000420,0.001003,0.000000,0.000000,0.000000,0.000000,0.000000
482148229.266413,0.006897,-0.012756,-1.062180,0.009208,0.010321,0.003901,0.999950,0.003995,-0.009207,-0.003900,0.999939,0.010321,0.009248,-0.010284,0.999904,0.009207,-0.010321,-0.999904,0.002634,-0.001596,-0.068119,0.008258,-0.004962,-0.003861,0.000000,0.000000,0.000000,0.000000,0.000000
482148229.276457,0.012848,-0.010941,-1.069000,0.009208,0.010321,0.003901,0.999950,0.003995,-0.009207,-0.003900,0.999939,0.010321,0.009248,-0.010284,0.999904,0.009207,-0.010321,-0.999904,0.002634,-0.001596,-0.068119,0.008258,-0.004962,-0.003861,0.000000,0.000000,0.000000,0.000000,0.000000
482148229.286259,0.007767,-0.008804,-1.062164,0.009239,0.010256,0.003934,0.999949,0.004029,-0.009238,-0.003934,0.999940,0.010256,0.009279,-0.010219,0.999905,0.009238,-0.010256,-0.999905,0.002511,0.001360,-0.064197,-0.001649,-0.000320,0.005949,0.000000,0.000000,0.000000,0.000000,0.000000
482148229.297274,0.011734,-0.007919,-1.065079,0.009228,0.010378,0.003973,0.999949,0.004068,-0.009228,-0.003972,0.999938,0.010377,0.009269,-0.010340,0.999904,0.009228,-0.010377,-0.999904,-0.002331,-0.002379,-0.062276,0.005772,0.001997,0.002294,0.000000,0.000000,0.000000,0.000000,0.000000
482148229.306203,0.010864,-0.012848,-1.064102,0.009228,0.010378,0.003973,0.999949,0.004068,-0.009228,-0.003972,0.999938,0.010377,0.009269,-0.010340,0.999904,0.009228,-0.010377,-0.999904,-0.002331,-0.002379,-0.062276,0.005772,0.001997,0.002294,0.000000,0.000000,0.000000,0.000000,0.000000
482148229.316117,0.007812,-0.010773,-1.060196,0.009253,0.010449,0.004000,0.999949,0.004096,-0.009253,-0.003999,0.999937,0.010448,0.009295,-0.010411,0.999903,0.009253,-0.010448,-0.999903,0.003595,-0.000492,-0.069098,0.004525,-0.002585,0.005974,0.000000,0.000000,0.000000,0.000000,0.000000
482148229.326894,0.007812,-0.010788,-1.061172,0.009249,0.010441,0.004055,0.999949,0.004152,-0.009248,-0.004055,0.999937,0.010441,0.009291,-0.010403,0.999903,0.009248,-0.010441,-0.999903,0.002486,0.002522,-0.065176,0.005732,-0.001422,0.005981,0.000000,0.000000,0.000000,0.000000,0.000000
482148229.338064,0.011673,-0.005936,-1.063095,0.009289,0.010504,0.004149,0.999948,0.004246,-0.009288,-0.004149,0.999936,0.010504,0.009332,-0.010465,0.999902,0.009288,-0.010504,-0.999902,0.001576,-0.002344,-0.064200,0.003247,0.002102,0.014592,0.000000,0.000000,0.000000,0.000000,0.000000
482148229.345820,0.011673,-0.005936,-1.063095,0.009289,0.010504,0.004149,0.999948,0.004246,-0.009288,-0.004149,0.999936,0.010504,0.009332,-0.010465,0.999902,0.009288,-0.010504,-0.999902,0.001576,-0.002344,-0.064200,0.003247,0.002102,0.014592,0.000000,0.000000,0.000000,0.000000,0.000000
482148229.356393,0.009872,-0.012848,-1.066071,0.009198,0.010575,0.004193,0.999949,0.004290,-0.009197,-0.004193,0.999935,0.010575,0.009242,-0.010536,0.999902,0.009197,-0.010575,-0.999902,-0.001385,-0.000213,-0.061271,0.004499,-0.004900,0.007201,0.000000,0.000000,0.000000,0.000000,0.000000
482148229.366395,0.008789,-0.009827,-1.062164,0.009155,0.010602,0.004245,0.999949,0.004342,-0.009154,-0.004245,0.999935,0.010601,0.009200,-0.010562,0.999902,0.009154,-0.010601,-0.999902,-0.001342,-0.000187,-0.061271,0.004507,-0.001456,0.004744,0.000000,0.000000,0.000000,0.000000,0.000000
482148229.376253,0.006912,-0.011810,-1.067078,0.009155,0.010602,0.004245,0.999949,0.004342,-0.009154,-0.004245,0.999935,0.010601,0.009200,-0.010562,0.999902,0.009154,-0.010601,-0.999902,-0.001342,-0.000187,-0.061271,0.004507,-0.001456,0.004744,0.000000,0.000000,0.000000,0.000000,0.000000
482148229.387336,0.012695,-0.006943,-1.064072,0.009145,0.010630,0.004306,0.999949,0.004403,-0.009145,-0.004306,0.999934,0.010630,0.009191,-0.010590,0.999902,0.009145,-0.010630,-0.999902,0.000728,-0.002218,-0.066169,0.010662,-0.007198,0.002301,0.000000,0.000000,0.000000,0.000000,0.000000
482148229.396410,0.010849,-0.011871,-1.066055,0.009095,0.010620,0.004340,0.999949,0.004436,-0.009094,-0.004340,0.999934,0.010620,0.009141,-0.010580,0.999902,0.009094,-0.010620,-0.999902,-0.000305,0.000793,-0.062262,-0.000439,-0.000363,0.001030,0.000000,0.000000,0.000000,0.000000,0.000000
482148229.406402,0.007828,-0.011795,-1.061172,0.009095,0.010620,0.004340,0.999949,0.004436,-0.009094,-0.004340,0.999934,0.010620,0.009141,-0.010580,0.999902,0.009094,-0.010620,-0.999902,-0.000305,0.000793,-0.062262,-0.000439,-0.000363,0.001030,0.000000,0.000000,0.000000,0.000000,0.000000
482148229.416536,0.010727,-0.006912,-1.066040,0.009033,0.010531,0.004408,0.999949,0.004503,-0.009032,-0.004408,0.999935,0.010531,0.009079,-0.010491,0.999904,0.009032,-0.010531,-0.999904,0.003663,0.003588,-0.064168,-0.000482,-0.002608,0.008413,0.000000,0.000000,0.000000,0.000000,0.000000
482148229.426128,0.010727,-0.006912,-1.066040,0.009010,0.010546,0.004418,0.999949,0.004512,-0.009009,-0.004417,0.999935,0.010546,0.009056,-0.010506,0.999904,0.009009,-0.010546,-0.999904,0.001840,-0.001325,-0.066151,0.000781,-0.008440,-0.000208,0.000000,0.000000,0.000000,0.000000,0.000000
482148229.436402,0.008926,-0.014801,-1.064117,0.009010,0.010546,0.004418,0.999949,0.004512,-0.009009,-0.004417,0.999935,0.010546,0.009056,-0.010506,0.999904,0.009009,-0.010546,-0.999904,0.001840,-0.001325,-0.066151,0.000781,-0.008440,-0.000208,0.000000,0.000000,0.000000,0.000000,0.000000
482148229.446020,0.007751,-0.007828,-1.064117,0.008906,0.010604,0.004516,0.999950,0.004610,-0.008905,-0.004515,0.999934,0.010604,0.008954,-0.010563,0.999904,0.008905,-0.010604,-0.999904,-0.001078,-0.001191,-0.061268,0.000773,-0.002643,0.003494,0.000000,0.000000,0.000000,0.000000,0.000000
482148229.456423,0.009735,-0.006912,-1.068024,0.008871,0.010467,0.004543,0.999950,0.004636,-0.008871,-0.004543,0.999935,0.010466,0.008919,-0.010426,0.999906,0.008871,-0.010466,-0.999906,0.001856,0.003554,-0.066134,-0.000488,-0.008409,0.004710,0.000000,0.000000,0.000000,0.000000,0.000000
482148229.467571,0.005814,-0.008743,-1.060211,0.008871,0.010467,0.004543,0.999950,0.004636,-0.008871,-0.004543,0.999935,0.010466,0.008919,-0.010426,0.999906,0.008871,-0.010466,-0.999906,0.001856,0.003554,-0.066134,-0.000488,-0.008409,0.004710,0.000000,0.000000,0.000000,0.000000,0.000000
482148229.476221,0.011719,-0.006958,-1.067032,0.008797,0.010465,0.004768,0.999950,0.004859,-0.008797,-0.004767,0.999934,0.010465,0.008847,-0.010422,0.999907,0.008797,-0.010465,-0.999907,-0.001045,0.002637,-0.064211,-0.000487,0.001983,0.005958,0.000000,0.000000,0.000000,0.000000,0.000000
482148229.486405,0.009735,-0.005936,-1.069977,0.008840,0.010384,0.004825,0.999949,0.004917,-0.008839,-0.004825,0.999934,0.010384,0.008890,-0.010341,0.999907,0.008839,-0.010384,-0.999907,0.000896,0.003472,-0.068117,0.000730,0.004293,0.004736,0.000000,0.000000,0.000000,0.000000,0.000000
482148229.496972,0.013779,-0.011902,-1.062134,0.008823,0.010258,0.005031,0.999948,0.005122,-0.008822,-0.005031,0.999935,0.010258,0.008874,-0.010213,0.999908,0.008822,-0.010258,-0.999908,0.002896,0.003300,-0.067123,0.004393,-0.001450,0.005974,0.000000,0.000000,0.000000,0.000000,0.000000
482148229.506833,0.011597,-0.002960,-1.064087,0.008823,0.010258,0.005031,0.999948,0.005122,-0.008822,-0.005031,0.999935,0.010258,0.008874,-0.010213,0.999908,0.008822,-0.010258,-0.999908,0.002896,0.003300,-0.067123,0.004393,-0.001450,0.005974,0.000000,0.000000,0.000000,0.000000,0.000000
482148229.517016,0.011597,-0.002960,-1.064087,0.008820,0.010186,0.005095,0.999948,0.005185,-0.008819,-0.005095,0.999935,0.010186,0.008872,-0.010141,0.999909,0.008819,-0.010186,-0.999909,0.000916,0.004250,-0.070068,0.003135,-0.000303,0.005970,0.000000,0.000000,0.000000,0.000000,0.000000
482148229.527691,0.008804,-0.009842,-1.064117,0.008937,0.010181,0.005168,0.999946,0.005259,-0.008937,-0.005168,0.999935,0.010181,0.008990,-0.010134,0.999908,0.008937,-0.010181,-0.999908,0.004842,-0.001721,-0.062226,0.000675,0.005475,0.005968,0.000000,0.000000,0.000000,0.000000,0.000000
482148229.536161,0.008804,-0.009842,-1.064117,0.008937,0.010181,0.005168,0.999946,0.005259,-0.008937,-0.005168,0.999935,0.010181,0.008990,-0.010134,0.999908,0.008937,-0.010181,-0.999908,0.004842,-0.001721,-0.062226,0.000675,0.005475,0.005968,0.000000,0.000000,0.000000,0.000000,0.000000
482148229.546277,0.005997,-0.014771,-1.068054,0.008994,0.010055,0.005226,0.999945,0.005316,-0.008993,-0.005225,0.999936,0.010055,0.009046,-0.010008,0.999909,0.008993,-0.010055,-0.999909,0.002603,0.007095,-0.064178,0.005564,0.002067,0.007215,0.000000,0.000000,0.000000,0.000000,0.000000
482148229.556334,0.009781,-0.009857,-1.064117,0.009080,0.010116,0.005263,0.999944,0.005355,-0.009080,-0.005263,0.999935,0.010116,0.009133,-0.010067,0.999908,0.009080,-0.010116,-0.999908,-0.000275,0.000274,-0.064210,-0.000594,0.007757,0.002272,0.000000,0.000000,0.000000,0.000000,0.000000
482148229.566465,0.009796,-0.010818,-1.062164,0.009080,0.010116,0.005263,0.999944,0.005355,-0.009080,-0.005263,0.999935,0.010116,0.009133,-0.010067,0.999908,0.009080,-0.010116,-0.999908,-0.000275,0.000274,-0.064210,-0.000594,0.007757,0.002272,0.000000,0.000000,0.000000,0.000000,0.000000
482148229.575983,0.012787,-0.007034,-1.075821,0.009012,0.010204,0.005268,0.999945,0.005360,-0.009011,-0.005268,0.999934,0.010204,0.009065,-0.010156,0.999907,0.009011,-0.010204,-0.999907,-0.003014,-0.004567,-0.068147,0.001898,-0.000348,-0.000192,0.000000,0.000000,0.000000,0.000000,0.000000
482148229.586407,0.009735,-0.007858,-1.064117,0.009046,0.010179,0.005366,0.999944,0.005458,-0.009046,-0.005366,0.999934,0.010179,0.009101,-0.010129,0.999907,0.009046,-0.010179,-0.999907,0.000750,-0.000640,-0.062257,-0.003075,0.002022,0.010869,0.000000,0.000000,0.000000,0.000000,0.000000
482148229.597122,0.010834,-0.011856,-1.063110,0.009046,0.010179,0.005366,0.999944,0.005458,-0.009046,-0.005366,0.999934,0.010179,0.009101,-0.010129,0.999907,0.009046,-0.010179,-0.999907,0.000750,-0.000640,-0.062257,-0.003075,0.002022,0.010869,0.000000,0.000000,0.000000,0.000000,0.000000
482148229.606142,0.010818,-0.010849,-1.064102,0.009077,0.010130,0.005375,0.999944,0.005467,-0.009076,-0.005375,0.999934,0.010130,0.009131,-0.010081,0.999907,0.009076,-0.010130,-0.999907,0.003711,0.003096,-0.075913,0.004332,-0.004912,0.002274,0.000000,0.000000,0.000000,0.000000,0.000000
482148229.616404,0.007889,-0.013779,-1.062164,0.009094,0.010172,0.005520,0.999943,0.005613,-0.009094,-0.005520,0.999933,0.010172,0.009150,-0.010121,0.999907,0.009094,-0.010172,-0.999907,0.000642,0.002314,-0.064211,0.004290,0.002090,0.010902,0.000000,0.000000,0.000000,0.000000,0.000000
482148229.626621,0.010803,-0.010834,-1.061157,0.009094,0.010172,0.005520,0.999943,0.005613,-0.009094,-0.005520,0.999933,0.010172,0.009150,-0.010121,0.999907,0.009094,-0.010172,-0.999907,0.000642,0.002314,-0.064211,0.004290,0.002090,0.010902,0.000000,0.000000,0.000000,0.000000,0.000000
482148229.635357,0.010803,-0.010834,-1.061157,0.009126,0.010206,0.005566,0.999942,0.005659,-0.009125,-0.005566,0.999932,0.010206,0.009182,-0.010154,0.999906,0.009125,-0.010206,-0.999906,0.001708,-0.001651,-0.063204,0.000628,0.003141,0.001039,0.000000,0.000000,0.000000,0.000000,0.000000
482148229.646585,0.009720,-0.007843,-1.062164,0.009160,0.010326,0.005688,0.999941,0.005782,-0.009159,-0.005688,0.999931,0.010326,0.009219,-0.010273,0.999905,0.009159,-0.010326,-0.999905,-0.001271,-0.003453,-0.062260,0.003110,0.005464,0.001054,0.000000,0.000000,0.000000,0.000000,0.000000
482148229.658626,0.011765,-0.009903,-1.064102,0.009160,0.010326,0.005688,0.999941,0.005782,-0.009159,-0.005688,0.999931,0.010326,0.009219,-0.010273,0.999905,0.009159,-0.010326,-0.999905,-0.001271,-0.003453,-0.062260,0.003110,0.005464,0.001054,0.000000,0.000000,0.000000,0.000000,0.000000
482148229.666104,0.009796,-0.009872,-1.065094,0.009152,0.010372,0.005715,0.999941,0.005810,-0.009151,-0.005715,0.999930,0.010372,0.009211,-0.010319,0.999904,0.009151,-0.010372,-0.999904,0.001652,-0.000462,-0.061253,0.006803,-0.001422,0.002291,0.000000,0.000000,0.000000,0.000000,0.000000
482148229.676400,0.010834,-0.009918,-1.069977,0.009215,0.010420,0.005818,0.999940,0.005914,-0.009215,-0.005818,0.999929,0.010420,0.009276,-0.010366,0.999903,0.009215,-0.010420,-0.999903,0.002550,0.000517,-0.064199,0.005533,0.003240,0.007216,0.000000,0.000000,0.000000,0.000000,0.000000
482148229.686554,0.009842,-0.011856,-1.065094,0.009257,0.010409,0.005870,0.999939,0.005966,-0.009256,-0.005870,0.999929,0.010409,0.009318,-0.010354,0.999903,0.009256,-0.010409,-0.999903,0.002508,0.000506,-0.064199,-0.001855,0.003156,0.003489,0.000000,0.000000,0.000000,0.000000,0.000000
482148229.696481,0.009781,-0.008865,-1.066071,0.009257,0.010409,0.005870,0.999939,0.005966,-0.009256,-0.005870,0.999929,0.010409,0.009318,-0.010354,0.999903,0.009256,-0.010409,-0.999903,0.002508,0.000506,-0.064199,-0.001855,0.003156,0.003489,0.000000,0.000000,0.000000,0.000000,0.000000
482148229.706359,0.010818,-0.009903,-1.067047,0.009307,0.010377,0.005836,0.999939,0.005933,-0.009307,-0.005836,0.999929,0.010377,0.009367,-0.010322,0.999903,0.009307,-0.010377,-0.999903,0.001527,0.000458,-0.070074,0.000619,0.001971,-0.002657,0.000000,0.000000,0.000000,0.000000,0.000000
482148229.716797,0.007797,-0.008835,-1.066071,0.009308,0.010393,0.005840,0.999939,0.005937,-0.009308,-0.005840,0.999929,0.010393,0.009369,-0.010338,0.999903,0.009308,-0.010393,-0.999903,0.000534,-0.001463,-0.065191,-0.001860,-0.000315,0.002252,0.000000,0.000000,0.000000,0.000000,0.000000
482148229.727519,0.010803,-0.008896,-1.068024,0.009308,0.010393,0.005840,0.999939,0.005937,-0.009308,-0.005840,0.999929,0.010393,0.009369,-0.010338,0.999903,0.009308,-0.010393,-0.999903,0.000534,-0.001463,-0.065191,-0.001860,-0.000315,0.002252,0.000000,0.000000,0.000000,0.000000,0.000000
482148229.736448,0.011765,-0.008911,-1.065079,0.009312,0.010384,0.005968,0.999938,0.006064,-0.009311,-0.005967,0.999928,0.010384,0.009374,-0.010328,0.999903,0.009311,-0.010384,-0.999903,0.001507,0.000481,-0.067144,0.003048,-0.001410,0.004735,0.000000,0.000000,0.000000,0.000000,0.000000
482148229.746077,0.011765,-0.008911,-1.065079,0.009238,0.010362,0.006002,0.999939,0.006097,-0.009237,-0.006002,0.999928,0.010362,0.009299,-0.010306,0.999904,0.009237,-0.010362,-0.999904,-0.001440,0.001527,-0.066167,-0.000657,-0.004932,0.002250,0.000000,0.000000,0.000000,0.000000,0.000000
482148229.756285,0.009705,-0.006882,-1.063110,0.009238,0.010362,0.006002,0.999939,0.006097,-0.009237,-0.006002,0.999928,0.010362,0.009299,-0.010306,0.999904,0.009237,-0.010362,-0.999904,-0.001440,0.001527,-0.066167,-0.000657,-0.004932,0.002250,0.000000,0.000000,0.000000,0.000000,0.000000
482148229.765993,0.009644,-0.003906,-1.064102,0.009234,0.010288,0.006064,0.999938,0.006158,-0.009233,-0.006063,0.999929,0.010288,0.009296,-0.010231,0.999904,0.009233,-0.010288,-0.999904,0.001570,0.001392,-0.068119,0.001796,-0.002590,0.003496,0.000000,0.000000,0.000000,0.000000,0.000000
482148229.776483,0.008759,-0.007843,-1.064117,0.009237,0.010264,0.006097,0.999938,0.006192,-0.009236,-0.006097,0.999929,0.010263,0.009299,-0.010206,0.999905,0.009236,-0.010263,-0.999905,0.002528,0.001352,-0.065174,0.001781,-0.003724,0.004725,0.000000,0.000000,0.000000,0.000000,0.000000
482148229.786346,0.010757,-0.007889,-1.066055,0.009237,0.010264,0.006097,0.999938,0.006192,-0.009236,-0.006097,0.999929,0.010263,0.009299,-0.010206,0.999905,0.009236,-0.010263,-0.999905,0.002528,0.001352,-0.065174,0.001781,-0.003724,0.004725,0.000000,0.000000,0.000000,0.000000,0.000000
482148229.796152,0.010803,-0.009888,-1.066055,0.009218,0.010013,0.006159,0.999938,0.006251,-0.009218,-0.006159,0.999931,0.010013,0.009280,-0.009956,0.999907,0.009218,-0.010013,-0.999907,0.000426,0.006107,-0.064195,-0.004440,-0.001460,0.004700,0.000000,0.000000,0.000000,0.000000,0.000000
482148229.806250,0.010742,-0.007874,-1.064102,0.009211,0.009985,0.006217,0.999938,0.006309,-0.009210,-0.006217,0.999931,0.009985,0.009273,-0.009927,0.999908,0.009210,-0.009985,-0.999908,-0.000452,0.002142,-0.064210,0.002927,0.004413,0.010898,0.000000,0.000000,0.000000,0.000000,0.000000
482148229.818053,0.008881,-0.011856,-1.068039,0.009277,0.009934,0.006369,0.999936,0.006460,-0.009277,-0.006368,0.999930,0.009934,0.009340,-0.009875,0.999908,0.009277,-0.009934,-0.999908,0.001527,0.000047,-0.066148,-0.006950,0.003177,0.008389,0.000000,0.000000,0.000000,0.000000,0.000000
482148229.826225,0.007736,-0.007812,-1.062164,0.009277,0.009934,0.006369,0.999936,0.006460,-0.009277,-0.006368,0.999930,0.009934,0.009340,-0.009875,0.999908,0.009277,-0.009934,-0.999908,0.001527,0.000047,-0.066148,-0.006950,0.003177,0.008389,0.000000,0.000000,0.000000,0.000000,0.000000
482148229.836405,0.010834,-0.010864,-1.065079,0.009298,0.009885,0.006420,0.999936,0.006512,-0.009297,-0.006420,0.999931,0.009884,0.009361,-0.009824,0.999908,0.009297,-0.009884,-0.999908,0.001445,0.002011,-0.064194,0.002922,0.002044,0.002276,0.000000,0.000000,0.000000,0.000000,0.000000
482148229.848887,0.007736,-0.006866,-1.066055,0.009348,0.009915,0.006477,0.999935,0.006569,-0.009347,-0.006476,0.999930,0.009914,0.009412,-0.009853,0.999907,0.009347,-0.009914,-0.999907,-0.000467,-0.001942,-0.068132,0.001708,0.003153,-0.001420,0.000000,0.000000,0.000000,0.000000,0.000000
482148229.861465,0.011765,-0.009903,-1.064102,0.009305,0.009887,0.006547,0.999935,0.006638,-0.009305,-0.006546,0.999930,0.009887,0.009370,-0.009826,0.999908,0.009305,-0.009887,-0.999908,-0.001569,0.002075,-0.062256,0.001669,-0.000259,0.005960,0.000000,0.000000,0.000000,0.000000,0.000000
482148229.865799,0.011765,-0.009903,-1.064102,0.009305,0.009887,0.006547,0.999935,0.006638,-0.009305,-0.006546,0.999930,0.009887,0.009370,-0.009826,0.999908,0.009305,-0.009887,-0.999908,-0.001569,0.002075,-0.062256,0.001669,-0.000259,0.005960,0.000000,0.000000,0.000000,0.000000,0.000000
482148229.876711,0.006866,-0.010773,-1.064133,0.009340,0.009906,0.006657,0.999934,0.006749,-0.009340,-0.006656,0.999929,0.009906,0.009406,-0.009843,0.999907,0.009340,-0.009906,-0.999907,-0.001603,0.003039,-0.066148,0.002875,0.004393,0.009666,0.000000,0.000000,0.000000,0.000000,0.000000
482148229.886310,0.011765,-0.009903,-1.063110,0.009340,0.009906,0.006657,0.999934,0.006749,-0.009340,-0.006656,0.999929,0.009906,0.009406,-0.009843,0.999907,0.009340,-0.009906,-0.999907,-0.001603,0.003039,-0.066148,0.002875,0.004393,0.009666,0.000000,0.000000,0.000000,0.000000,0.000000
482148229.896338,0.008804,-0.009842,-1.064117,0.009369,0.009873,0.006720,0.999933,0.006812,-0.009368,-0.006720,0.999929,0.009873,0.009435,-0.009810,0.999907,0.009368,-0.009873,-0.999907,0.002397,-0.000030,-0.064195,-0.003273,-0.002633,0.002241,0.000000,0.000000,0.000000,0.000000,0.000000
482148229.906487,0.003860,-0.009750,-1.063156,0.009342,0.009798,0.006741,0.999933,0.006832,-0.009342,-0.006740,0.999929,0.009798,0.009408,-0.009735,0.999908,0.009342,-0.009798,-0.999908,0.002423,-0.000105,-0.063202,-0.002037,-0.002641,0.001015,0.000000,0.000000,0.000000,0.000000,0.000000
482148229.925278,0.008789,-0.008835,-1.064117,0.009350,0.009821,0.006763,0.999933,0.006854,-0.009350,-0.006762,0.999929,0.009821,0.009416,-0.009757,0.999908,0.009350,-0.009821,-0.999908,0.002415,-0.000082,-0.063202,-0.000811,0.002008,0.003490,0.000000,0.000000,0.000000,0.000000,0.000000
482148229.936853,0.010818,-0.010849,-1.063110,0.009278,0.009780,0.006850,0.999933,0.006941,-0.009278,-0.006850,0.999929,0.009780,0.009345,-0.009716,0.999909,0.009278,-0.009780,-0.999909,-0.005417,0.000029,-0.063247,0.000392,-0.002576,0.010875,0.000000,0.000000,0.000000,0.000000,0.000000
482148229.947262,0.010818,-0.010849,-1.063110,0.009278,0.009780,0.006850,0.999933,0.006941,-0.009278,-0.006850,0.999929,0.009780,0.009345,-0.009716,0.999909,0.009278,-0.009780,-0.999909,-0.005417,0.000029,-0.063247,0.000392,-0.002576,0.010875,0.000000,0.000000,0.000000,0.000000,0.000000
482148229.956160,0.009735,-0.007858,-1.063126,0.009248,0.009804,0.006944,0.999932,0.007035,-0.009248,-0.006944,0.999928,0.009804,0.009316,-0.009739,0.999909,0.009248,-0.009804,-0.999909,-0.000337,-0.003044,-0.068130,-0.000825,-0.000291,0.009642,0.000000,0.000000,0.000000,0.000000,0.000000
482148229.965408,0.010925,-0.013870,-1.067047,0.009224,0.009770,0.006916,0.999933,0.007006,-0.009223,-0.006916,0.999928,0.009770,0.009291,-0.009705,0.999910,0.009223,-0.009770,-0.999910,0.001595,-0.001079,-0.063201,-0.005729,-0.002730,-0.001463,0.000000,0.000000,0.000000,0.000000,0.000000
482148229.976726,0.007874,-0.012802,-1.063126,0.009224,0.009770,0.006916,0.999933,0.007006,-0.009223,-0.006916,0.999928,0.009770,0.009291,-0.009705,0.999910,0.009223,-0.009770,-0.999910,0.001595,-0.001079,-0.063201,-0.005729,-0.002730,-0.001463,0.000000,0.000000,0.000000,0.000000,0.000000
482148229.985599,0.008865,-0.010849,-1.067062,0.009219,0.009705,0.006962,0.999933,0.007051,-0.009218,-0.006962,0.999929,0.009705,0.009286,-0.009640,0.999910,0.009218,-0.009705,-0.999910,0.000517,0.001846,-0.063215,0.000406,0.001985,0.004727,0.000000,0.000000,0.000000,0.000000,0.000000
482148229.996393,0.010773,-0.009842,-1.060181,0.009229,0.009862,0.006964,0.999933,0.007054,-0.009228,-0.006963,0.999927,0.009862,0.009297,-0.009797,0.999909,0.009228,-0.009862,-0.999909,0.001697,-0.004008,-0.067138,0.002913,-0.000364,-0.002652,0.000000,0.000000,0.000000,0.000000,0.000000
482148230.007142,0.009811,-0.010834,-1.064117,0.009162,0.009927,0.006992,0.999933,0.007083,-0.009162,-0.006992,0.999926,0.009926,0.009232,-0.009862,0.999909,0.009162,-0.009926,-0.999909,-0.001288,-0.002876,-0.063217,0.002905,-0.002631,0.003500,0.000000,0.000000,0.000000,0.000000,0.000000
482148230.015904,0.009796,-0.008881,-1.068039,0.009162,0.009927,0.006992,0.999933,0.007083,-0.009162,-0.006992,0.999926,0.009926,0.009232,-0.009862,0.999909,0.009162,-0.009926,-0.999909,-0.001288,-0.002876,-0.063217,0.002905,-0.002631,0.003500,0.000000,0.000000,0.000000,0.000000,0.000000
482148230.026423,0.010910,-0.014832,-1.064102,0.009143,0.009980,0.007090,0.999932,0.007180,-0.009142,-0.007089,0.999925,0.009980,0.009213,-0.009915,0.999908,0.009142,-0.009980,-0.999908,0.001630,0.000138,-0.060272,0.006600,0.004335,0.004759,0.000000,0.000000,0.000000,0.000000,0.000000
482148230.037273,0.009872,-0.013794,-1.060196,0.009143,0.009980,0.007090,0.999932,0.007180,-0.009142,-0.007089,0.999925,0.009980,0.009213,-0.009915,0.999908,0.009142,-0.009980,-0.999908,0.001630,0.000138,-0.060272,0.006600,0.004335,0.004759,0.000000,0.000000,0.000000,0.000000,0.000000
482148230.047021,0.009872,-0.013794,-1.060196,0.009202,0.009947,0.007154,0.999931,0.007245,-0.009202,-0.007153,0.999925,0.009947,0.009273,-0.009881,0.999908,0.009202,-0.009947,-0.999908,0.000610,-0.000886,-0.064209,-0.003265,0.007729,0.004719,0.000000,0.000000,0.000000,0.000000,0.000000
482148230.056183,0.010910,-0.013855,-1.065079,0.009284,0.010079,0.007287,0.999930,0.007380,-0.009283,-0.007286,0.999923,0.010079,0.009357,-0.010011,0.999906,0.009283,-0.010079,-0.999906,0.001627,-0.004752,-0.064196,0.005371,0.003198,0.007214,0.000000,0.000000,0.000000,0.000000,0.000000
482148230.068561,0.010818,-0.010849,-1.064102,0.009303,0.010154,0.007357,0.999929,0.007451,-0.009303,-0.007356,0.999921,0.010154,0.009378,-0.010085,0.999905,0.009303,-0.010154,-0.999905,0.000570,-0.003640,-0.060291,0.005399,0.003167,0.003521,0.000000,0.000000,0.000000,0.000000,0.000000
482148230.076198,0.012848,-0.011932,-1.067032,0.009303,0.010154,0.007357,0.999929,0.007451,-0.009303,-0.007356,0.999921,0.010154,0.009378,-0.010085,0.999905,0.009303,-0.010154,-0.999905,0.000570,-0.003640,-0.060291,0.005399,0.003167,0.003521,0.000000,0.000000,0.000000,0.000000,0.000000
482148230.086384,0.009766,-0.007889,-1.067062,0.009333,0.010226,0.007472,0.999928,0.007567,-0.009332,-0.007472,0.999920,0.010226,0.009409,-0.010155,0.999904,0.009332,-0.010226,-0.999904,0.001578,-0.003629,-0.065175,-0.001979,-0.001521,0.001017,0.000000,0.000000,0.000000,0.000000,0.000000
482148230.096418,0.007797,-0.009827,-1.064117,0.009353,0.010200,0.007488,0.999928,0.007583,-0.009353,-0.007488,0.999920,0.010200,0.009429,-0.010129,0.999904,0.009353,-0.010200,-0.999904,0.001466,-0.000649,-0.064198,-0.001991,-0.000330,0.004712,0.000000,0.000000,0.000000,0.000000,0.000000
482148230.106966,0.011810,-0.010895,-1.066055,0.009353,0.010200,0.007488,0.999928,0.007583,-0.009353,-0.007488,0.999920,0.010200,0.009429,-0.010129,0.999904,0.009353,-0.010200,-0.999904,0.001466,-0.000649,-0.064198,-0.001991,-0.000330,0.004712,0.000000,0.000000,0.000000,0.000000,0.000000
482148230.115709,0.008774,-0.008820,-1.062164,0.009428,0.010177,0.007550,0.999926,0.007645,-0.009427,-0.007549,0.999920,0.010177,0.009504,-0.010105,0.999904,0.009427,-0.010177,-0.999904,0.000339,0.002288,-0.067159,0.005392,0.000911,0.007210,0.000000,0.000000,0.000000,0.000000,0.000000
482148230.126401,0.011765,-0.009903,-1.064102,0.009406,0.010215,0.007650,0.999926,0.007745,-0.009405,-0.007649,0.999919,0.010214,0.009484,-0.010142,0.999904,0.009405,-0.010214,-0.999904,-0.001608,0.000388,-0.064214,0.004138,0.002087,0.012130,0.000000,0.000000,0.000000,0.000000,0.000000
482148230.136488,0.008759,-0.007843,-1.064117,0.009406,0.010215,0.007650,0.999926,0.007745,-0.009405,-0.007649,0.999919,0.010214,0.009484,-0.010142,0.999904,0.009405,-0.010214,-0.999904,-0.001608,0.000388,-0.064214,0.004138,0.002087,0.012130,0.000000,0.000000,0.000000,0.000000,0.000000
482148230.145513,0.008759,-0.007843,-1.064117,0.009465,0.010183,0.007795,0.999924,0.007891,-0.009464,-0.007795,0.999918,0.010183,0.009544,-0.010108,0.999903,0.009464,-0.010183,-0.999903,-0.000690,0.001363,-0.062261,0.000452,0.002000,0.004727,0.000000,0.000000,0.000000,0.000000,0.000000
482148230.155780,0.010818,-0.008911,-1.069977,0.009485,0.010174,0.007757,0.999924,0.007853,-0.009484,-0.007756,0.999918,0.010174,0.009563,-0.010099,0.999903,0.009484,-0.010174,-0.999903,0.002281,0.000271,-0.064199,0.000478,-0.003848,-0.005131,0.000000,0.000000,0.000000,0.000000,0.000000
482148230.169438,0.010864,-0.011887,-1.067047,0.009485,0.010174,0.007757,0.999924,0.007853,-0.009484,-0.007756,0.999918,0.010174,0.009563,-0.010099,0.999903,0.009484,-0.010174,-0.999903,0.002281,0.000271,-0.064199,0.000478,-0.003848,-0.005131,0.000000,0.000000,0.000000,0.000000,0.000000
482148230.176035,0.010895,-0.011902,-1.070969,0.009423,0.010204,0.007837,0.999924,0.007932,-0.009423,-0.007836,0.999917,0.010204,0.009503,-0.010130,0.999904,0.009423,-0.010204,-0.999904,-0.000664,0.002361,-0.064214,-0.002031,-0.000335,0.003481,0.000000,0.000000,0.000000,0.000000,0.000000
482148230.185499,0.008865,-0.010849,-1.068039,0.009514,0.010150,0.007883,0.999923,0.007979,-0.009513,-0.007882,0.999917,0.010150,0.009593,-0.010074,0.999903,0.009513,-0.010150,-0.999903,0.001306,0.001239,-0.070074,0.000432,0.008914,0.002275,0.000000,0.000000,0.000000,0.000000,0.000000
482148230.197784,0.008835,-0.009872,-1.067062,0.009514,0.010150,0.007883,0.999923,0.007979,-0.009513,-0.007882,0.999917,0.010150,0.009593,-0.010074,0.999903,0.009513,-0.010150,-0.999903,0.001306,0.001239,-0.070074,0.000432,0.008914,0.002275,0.000000,0.000000,0.000000,0.000000,0.000000
482148230.206302,0.006836,-0.008804,-1.066086,0.009507,0.010201,0.007998,0.999922,0.008094,-0.009507,-0.007997,0.999916,0.010200,0.009588,-0.010124,0.999903,0.009507,-0.010200,-0.999903,0.001388,-0.001701,-0.071066,0.000415,-0.002564,0.009643,0.000000,0.000000,0.000000,0.000000,0.000000
482148230.216314,0.010727,-0.006912,-1.066040,0.009472,0.010234,0.008086,0.999922,0.008182,-0.009471,-0.008085,0.999915,0.010234,0.009554,-0.010157,0.999903,0.009471,-0.010234,-0.999903,-0.000606,-0.000615,-0.068136,0.002877,-0.001388,0.010887,0.000000,0.000000,0.000000,0.000000,0.000000
482148230.226396,0.006897,-0.010803,-1.068054,0.009352,0.010225,0.008112,0.999923,0.008208,-0.009352,-0.008112,0.999915,0.010225,0.009435,-0.010149,0.999904,0.009352,-0.010225,-0.999904,-0.002516,0.001421,-0.066182,-0.003236,0.002988,-0.010061,0.000000,0.000000,0.000000,0.000000,0.000000
482148230.236779,0.010696,-0.006882,-1.062134,0.009352,0.010225,0.008112,0.999923,0.008208,-0.009352,-0.008112,0.999915,0.010225,0.009435,-0.010149,0.999904,0.009352,-0.010225,-0.999904,-0.002516,0.001421,-0.066182,-0.003236,0.002988,-0.010061,0.000000,0.000000,0.000000,0.000000,0.000000
482148230.247118,0.010696,-0.006882,-1.062134,0.009310,0.010272,0.008146,0.999923,0.008241,-0.009309,-0.008146,0.999914,0.010272,0.009393,-0.010195,0.999904,0.009309,-0.010272,-0.999904,-0.002473,0.001467,-0.066182,0.006581,-0.004900,0.004743,0.000000,0.000000,0.000000,0.000000,0.000000
482148230.257112,0.008743,-0.006882,-1.066055,0.009207,0.010213,0.008148,0.999924,0.008242,-0.009206,-0.008148,0.999915,0.010213,0.009290,-0.010137,0.999905,0.009206,-0.010213,-0.999905,-0.002309,-0.000591,-0.068149,0.004099,-0.000320,0.003508,0.000000,0.000000,0.000000,0.000000,0.000000
482148230.266487,0.008789,-0.008835,-1.063126,0.009207,0.010213,0.008148,0.999924,0.008242,-0.009206,-0.008148,0.999915,0.010213,0.009290,-0.010137,0.999905,0.009206,-0.010213,-0.999905,-0.002309,-0.000591,-0.068149,0.004099,-0.000320,0.003508,0.000000,0.000000,0.000000,0.000000,0.000000
482148230.276082,0.007843,-0.010818,-1.066071,0.009205,0.010142,0.008194,0.999923,0.008287,-0.009205,-0.008194,0.999915,0.010142,0.009288,-0.010066,0.999906,0.009205,-0.010142,-0.999906,0.001492,0.003260,-0.062228,-0.002099,-0.002638,0.007169,0.000000,0.000000,0.000000,0.000000,0.000000
482148230.287900,0.011902,-0.011963,-1.074890,0.009173,0.010001,0.008239,0.999923,0.008330,-0.009172,-0.008238,0.999916,0.010000,0.009255,-0.009924,0.999908,0.009172,-0.010000,-0.999908,-0.000383,0.001166,-0.063218,-0.000877,0.000784,0.002256,0.000000,0.000000,0.000000,0.000000,0.000000
482148230.301997,0.010834,-0.011856,-1.064102,0.009173,0.010001,0.008239,0.999923,0.008330,-0.009172,-0.008238,0.999916,0.010000,0.009255,-0.009924,0.999908,0.009172,-0.010000,-0.999908,-0.000383,0.001166,-0.063218,-0.000877,0.000784,0.002256,0.000000,0.000000,0.000000,0.000000,0.000000
482148230.305495,0.007782,-0.008820,-1.064117,0.009129,0.010007,0.008291,0.999923,0.008382,-0.009129,-0.008290,0.999916,0.010007,0.009212,-0.009931,0.999908,0.009129,-0.010007,-0.999908,-0.001286,-0.000811,-0.066162,-0.003352,-0.000377,0.004705,0.000000,0.000000,0.000000,0.000000,0.000000
482148230.316180,0.006836,-0.008804,-1.066086,0.009197,0.009997,0.008358,0.999922,0.008450,-0.009196,-0.008358,0.999915,0.009997,0.009280,-0.009919,0.999908,0.009196,-0.009997,-0.999908,0.002706,-0.001966,-0.074982,0.001583,-0.002631,0.005955,0.000000,0.000000,-1.000000,0.000000,0.000000
482148230.332413,0.011673,-0.005936,-1.064087,0.009193,0.010085,0.008406,0.999922,0.008498,-0.009192,-0.008405,0.999914,0.010085,0.009277,-0.010007,0.999907,0.009192,-0.010085,-0.999907,0.001641,-0.001771,-0.064195,0.003001,-0.004134,0.000017,0.000000,0.000000,-1.000000,0.000000,0.000000
482148230.335362,0.009796,-0.008881,-1.068039,0.009193,0.010085,0.008406,0.999922,0.008498,-0.009192,-0.008405,0.999914,0.010085,0.009277,-0.010007,0.999907,0.009192,-0.010085,-0.999907,0.001641,-0.001771,-0.064195,0.003001,-0.004134,0.000017,0.000000,0.000000,-1.000000,0.000000,0.000000
482148230.390886,0.014847,-0.010971,-1.070938,0.009191,0.009923,0.008712,0.999919,0.008803,-0.009190,-0.008712,0.999913,0.009923,0.009277,-0.009842,0.999909,0.009190,-0.009923,-0.999909,-0.001362,0.000066,-0.068130,0.004210,0.000521,0.003723,346.712280,351.175079,-1.000000,0.000000,0.000000
482148230.396126,0.014847,-0.010971,-1.070938,0.009191,0.009923,0.008712,0.999919,0.008803,-0.009190,-0.008712,0.999913,0.009923,0.009277,-0.009842,0.999909,0.009190,-0.009923,-0.999909,-0.001362,0.000066,-0.068130,0.004210,0.000521,0.003723,346.712280,351.175079,-1.000000,0.000000,0.000000
482148230.415876,0.013809,-0.010941,-1.067032,0.009207,0.010000,0.008868,0.999918,0.008960,-0.009206,-0.008868,0.999911,0.010000,0.009295,-0.009917,0.999908,0.009206,-0.010000,-0.999908,-0.000310,-0.003779,-0.060288,0.001721,0.002887,0.012333,346.712280,351.175079,-1.000000,0.000000,0.000000
482148230.436730,0.010818,-0.011826,-1.060181,0.009318,0.010102,0.008969,0.999916,0.009062,-0.009317,-0.008968,0.999909,0.010102,0.009408,-0.010018,0.999906,0.009317,-0.010102,-0.999906,0.001456,0.000245,-0.062243,0.007906,0.000575,0.006202,346.712280,351.175079,-1.000000,0.000000,0.000000
482148230.446204,0.010773,-0.009857,-1.061157,0.009405,0.010141,0.009010,0.999914,0.009105,-0.009404,-0.009009,0.999908,0.010140,0.009496,-0.010055,0.999904,0.009404,-0.010140,-0.999904,0.004405,-0.000800,-0.067127,0.005440,0.001716,0.006192,346.712280,351.175079,-1.000000,0.000000,0.000000
482148230.456215,0.004807,-0.007767,-1.064148,0.009405,0.010141,0.009010,0.999914,0.009105,-0.009404,-0.009009,0.999908,0.010140,0.009496,-0.010055,0.999904,0.009404,-0.010140,-0.999904,0.004405,-0.000800,-0.067127,0.005440,0.001716,0.006192,346.712280,351.175079,-1.000000,0.000000,0.000000
482148230.491292,0.008942,-0.014816,-1.065094,0.009454,0.010120,0.009256,0.999912,0.009351,-0.009454,-0.009255,0.999906,0.010120,0.009548,-0.010031,0.999904,0.009454,-0.010120,-0.999904,-0.004647,0.002353,-0.064244,-0.000748,-0.002918,0.009850,346.712280,351.175079,-1.000000,0.000000,0.000000
482148230.497748,0.008942,-0.014816,-1.065094,0.009454,0.010120,0.009256,0.999912,0.009351,-0.009454,-0.009255,0.999906,0.010120,0.009548,-0.010031,0.999904,0.009454,-0.010120,-0.999904,-0.004647,0.002353,-0.064244,-0.000748,-0.002918,0.009850,346.712280,351.175079,-1.000000,0.000000,0.000000
482148230.520806,0.009811,-0.010834,-1.064117,0.009448,0.010192,0.009507,0.999909,0.009603,-0.009448,-0.009507,0.999903,0.010192,0.009545,-0.010101,0.999903,0.009448,-0.010192,-0.999903,-0.000506,-0.004625,-0.065191,0.005419,0.001767,0.012347,346.712280,351.175079,-1.000000,0.000000,0.000000
482148230.525667,0.009811,-0.010834,-1.064117,0.009448,0.010192,0.009507,0.999909,0.009603,-0.009448,-0.009507,0.999903,0.010192,0.009545,-0.010101,0.999903,0.009448,-0.010192,-0.999903,-0.000506,-0.004625,-0.065191,0.005419,0.001767,0.012347,346.712280,351.175079,-1.000000,0.000000,0.000000
482148230.539396,0.009705,-0.006882,-1.063110,0.009402,0.010286,0.009591,0.999909,0.009688,-0.009401,-0.009591,0.999901,0.010286,0.009500,-0.010195,0.999903,0.009401,-0.010286,-0.999903,-0.001497,-0.002547,-0.067159,0.001725,-0.000581,0.011095,346.712280,351.175079,-1.000000,0.000000,0.000000
482148230.545821,0.008682,-0.005844,-1.059204,0.009330,0.010352,0.009765,0.999908,0.009861,-0.009329,-0.009765,0.999899,0.010352,0.009430,-0.010260,0.999903,0.009329,-0.010352,-0.999903,0.000482,-0.000482,-0.064215,0.004205,-0.004062,0.007408,346.712280,351.175079,-1.000000,0.000000,0.000000
482148230.556337,0.013733,-0.009918,-1.062134,0.009330,0.010352,0.009765,0.999908,0.009861,-0.009329,-0.009765,0.999899,0.010352,0.009430,-0.010260,0.999903,0.009329,-0.010352,-0.999903,0.000482,-0.000482,-0.064215,0.004205,-0.004062,0.007408,346.712280,351.175079,-1.000000,0.000000,0.000000
482148230.575949,0.010773,-0.008865,-1.064102,0.009328,0.010302,0.009825,0.999907,0.009921,-0.009328,-0.009825,0.999899,0.010302,0.009429,-0.010210,0.999903,0.009328,-0.010302,-0.999903,-0.000645,0.004458,-0.059301,0.006698,-0.002985,-0.003658,346.712280,351.175079,-1.000000,0.000000,0.000000
482148230.593101,0.010864,-0.011887,-1.067047,0.009420,0.010271,0.009915,0.999906,0.010011,-0.009419,-0.009914,0.999898,0.010271,0.009521,-0.010177,0.999903,0.009419,-0.010271,-0.999903,0.004314,0.000353,-0.062231,-0.006917,0.000512,0.011058,346.712280,351.175079,-1.000000,0.000000,0.000000
482148230.596692,0.009857,-0.011871,-1.068039,0.009420,0.010271,0.009915,0.999906,0.010011,-0.009419,-0.009914,0.999898,0.010271,0.009521,-0.010177,0.999903,0.009419,-0.010271,-0.999903,0.004314,0.000353,-0.062231,-0.006917,0.000512,0.011058,346.712280,351.175079,-1.000000,0.000000,0.000000
482148230.605579,0.009857,-0.011871,-1.068039,0.009489,0.010221,0.010160,0.999902,0.010256,-0.009489,-0.010159,0.999896,0.010220,0.009593,-0.010123,0.999903,0.009489,-0.010220,-0.999903,0.001284,0.001355,-0.064199,-0.000754,0.000559,0.011086,346.712280,351.175079,-1.000000,0.000000,0.000000
482148230.623018,0.008835,-0.011795,-1.060196,0.009490,0.010244,0.010220,0.999902,0.010316,-0.009490,-0.010219,0.999895,0.010243,0.009594,-0.010145,0.999902,0.009490,-0.010243,-0.999902,0.001374,-0.001643,-0.067145,0.002970,-0.004096,0.003709,346.712280,351.175079,-1.000000,0.000000,0.000000
482148230.625510,0.008835,-0.011795,-1.060196,0.009490,0.010244,0.010220,0.999902,0.010316,-0.009490,-0.010219,0.999895,0.010243,0.009594,-0.010145,0.999902,0.009490,-0.010243,-0.999902,0.001374,-0.001643,-0.067145,0.002970,-0.004096,0.003709,346.712280,351.175079,-1.000000,0.000000,0.000000
482148230.642475,0.009827,-0.010849,-1.065094,0.009433,0.010251,0.010351,0.999901,0.010447,-0.009432,-0.010350,0.999894,0.010250,0.009538,-0.010152,0.999903,0.009432,-0.010250,-0.999903,0.000318,0.003323,-0.069113,-0.000740,0.000517,0.006161,346.712280,351.175079,-1.000000,0.000000,0.000000
482148230.648138,0.009827,-0.010849,-1.065094,0.009455,0.010321,0.010393,0.999900,0.010490,-0.009455,-0.010392,0.999893,0.010320,0.009562,-0.010221,0.999902,0.009455,-0.010320,-0.999902,-0.000620,-0.001475,-0.060294,0.009137,0.004029,0.003750,346.709290,351.172089,-1.000000,0.000000,0.000000
482148230.668321,0.008835,-0.010818,-1.064117,0.009462,0.010401,0.010549,0.999899,0.010646,-0.009461,-0.010548,0.999890,0.010401,0.009571,-0.010300,0.999901,0.009461,-0.010401,-0.999901,0.001419,-0.001501,-0.069114,0.004191,-0.001748,0.007411,346.685822,351.148621,-1.000000,0.000000,0.000000
482148230.677636,0.011902,-0.013901,-1.067047,0.009439,0.010432,0.010566,0.999899,0.010664,-0.009439,-0.010566,0.999890,0.010432,0.009549,-0.010331,0.999901,0.009439,-0.010432,-0.999901,0.000388,-0.000417,-0.065193,0.000507,0.001648,0.002476,346.673035,351.135834,-1.000000,0.000000,0.000000
482148230.686030,0.010803,-0.008896,-1.068024,0.009439,0.010432,0.010566,0.999899,0.010664,-0.009439,-0.010566,0.999890,0.010432,0.009549,-0.010331,0.999901,0.009439,-0.010432,-0.999901,0.000388,-0.000417,-0.065193,0.000507,0.001648,0.002476,346.673035,351.135834,-1.000000,0.000000,0.000000
482148230.701351,0.009827,-0.009903,-1.069031,0.009429,0.010504,0.010585,0.999898,0.010683,-0.009428,-0.010584,0.999889,0.010504,0.009539,-0.010403,0.999900,0.009428,-0.010504,-0.999900,-0.000593,-0.000314,-0.064217,0.007908,-0.002920,0.002502,346.673035,351.135834,-1.000000,0.000000,0.000000
482148230.707030,0.005890,-0.010773,-1.065109,0.009439,0.010571,0.010644,0.999898,0.010743,-0.009438,-0.010643,0.999887,0.010571,0.009551,-0.010469,0.999900,0.009438,-0.010571,-0.999900,0.002464,-0.003330,-0.067148,0.001731,-0.006395,0.006161,346.673035,351.135834,-1.000000,0.000000,0.000000
482148230.722364,0.007812,-0.009842,-1.065094,0.009390,0.010643,0.010817,0.999896,0.010916,-0.009389,-0.010816,0.999885,0.010643,0.009505,-0.010540,0.999899,0.009389,-0.010643,-0.999899,0.000437,0.000740,-0.069131,0.010345,-0.006291,0.011125,346.665588,351.128387,-1.000000,0.000000,0.000000
482148230.726172,0.007812,-0.009842,-1.065094,0.009390,0.010643,0.010817,0.999896,0.010916,-0.009389,-0.010816,0.999885,0.010643,0.009505,-0.010540,0.999899,0.009389,-0.010643,-0.999899,0.000437,0.000740,-0.069131,0.010345,-0.006291,0.011125,346.665588,351.128387,-1.000000,0.000000,0.000000
482148230.736427,0.009674,-0.004898,-1.066055,0.009390,0.010643,0.010817,0.999896,0.010916,-0.009389,-0.010816,0.999885,0.010643,0.009505,-0.010540,0.999899,0.009389,-0.010643,-0.999899,0.000437,0.000740,-0.069131,0.010345,-0.006291,0.011125,346.665588,351.128387,-1.000000,0.000000,0.000000
482148230.751436,0.010880,-0.013824,-1.062149,0.009132,0.010706,0.011021,0.999897,0.011118,-0.009131,-0.011021,0.999882,0.010705,0.009249,-0.010604,0.999901,0.009131,-0.010705,-0.999901,-0.001319,0.000864,-0.065193,0.006665,0.001707,0.004966,346.665588,351.128387,-1.000000,0.000000,0.000000
482148230.755867,0.010880,-0.013824,-1.062149,0.009132,0.010706,0.011021,0.999897,0.011118,-0.009131,-0.011021,0.999882,0.010705,0.009249,-0.010604,0.999901,0.009131,-0.010705,-0.999901,-0.001319,0.000864,-0.065193,0.006665,0.001707,0.004966,346.665588,351.128387,-1.000000,0.000000,0.000000
482148230.772687,0.009857,-0.010880,-1.069031,0.009180,0.010664,0.011069,0.999896,0.011166,-0.009180,-0.011068,0.999882,0.010664,0.009298,-0.010561,0.999901,0.009180,-0.010664,-0.999901,0.000494,0.005766,-0.066154,0.014067,0.006358,0.002544,346.665588,351.128387,-1.000000,0.000000,0.000000
482148230.775472,0.009857,-0.010880,-1.069031,0.009180,0.010664,0.011069,0.999896,0.011166,-0.009180,-0.011068,0.999882,0.010664,0.009298,-0.010561,0.999901,0.009180,-0.010664,-0.999901,0.000494,0.005766,-0.066154,0.014067,0.006358,0.002544,346.665588,351.128387,-1.000000,0.000000,0.000000
482148230.786349,0.009933,-0.013870,-1.069992,0.009200,0.010770,0.011194,0.999894,0.011292,-0.009199,-0.011193,0.999879,0.010770,0.009320,-0.010666,0.999900,0.009199,-0.010770,-0.999900,0.001680,-0.003054,-0.062249,0.002949,-0.001760,0.007405,346.661865,351.124664,-1.000000,0.000000,0.000000
482148230.801450,0.007843,-0.008881,-1.071960,0.009183,0.010836,0.011248,0.999893,0.011346,-0.009182,-0.011247,0.999878,0.010836,0.009304,-0.010731,0.999899,0.009182,-0.010836,-0.999899,0.000675,-0.001035,-0.068140,0.006658,-0.001755,0.004960,346.659149,351.121948,-1.000000,0.000000,0.000000
482148230.826086,0.010925,-0.014847,-1.065079,0.009093,0.010947,0.011421,0.999892,0.011520,-0.009092,-0.011420,0.999875,0.010946,0.009217,-0.010841,0.999899,0.009092,-0.010946,-0.999899,-0.001249,0.002066,-0.072062,0.004205,-0.004125,0.000021,346.659149,351.121948,-1.000000,0.000000,0.000000
482148230.848637,0.010834,-0.010864,-1.066055,0.008996,0.011043,0.011475,0.999893,0.011574,-0.008995,-0.011474,0.999873,0.011043,0.009122,-0.010939,0.999899,0.008995,-0.011043,-0.999899,-0.001168,-0.000737,-0.060297,0.007893,-0.004070,0.003731,346.653503,351.116302,-1.000000,0.000000,0.000000
482148230.856111,0.010834,-0.010864,-1.066055,0.008941,0.011115,0.011505,0.999893,0.011604,-0.008941,-0.011504,0.999872,0.011115,0.009068,-0.011011,0.999898,0.008941,-0.011115,-0.999898,-0.001113,-0.000680,-0.062266,0.004194,-0.000634,0.003719,346.649170,351.111969,-1.000000,0.000000,0.000000
482148230.867822,0.010727,-0.007858,-1.062149,0.009037,0.011192,0.011624,0.999890,0.011724,-0.009037,-0.011623,0.999870,0.011192,0.009167,-0.011086,0.999897,0.009037,-0.011192,-0.999897,0.002758,0.001258,-0.068127,0.005438,-0.006427,0.000023,346.649170,351.111969,-1.000000,0.000000,0.000000
482148230.904257,0.009720,-0.006897,-1.066055,0.008990,0.011202,0.011797,0.999889,0.011897,-0.008990,-0.011796,0.999868,0.011202,0.009122,-0.011095,0.999897,0.008990,-0.011202,-0.999897,-0.000094,-0.001631,-0.066174,-0.000771,-0.001745,0.012312,346.649170,351.111969,-1.000000,0.000000,0.000000
482148230.916694,0.014862,-0.013916,-1.064072,0.008936,0.011211,0.011845,0.999889,0.011945,-0.008935,-0.011844,0.999867,0.011211,0.009068,-0.011104,0.999897,0.008935,-0.011211,-0.999897,-0.001092,0.000392,-0.066173,0.006656,-0.001767,0.003728,346.649170,351.111969,-1.000000,0.000000,0.000000
482148230.926454,0.014816,-0.011948,-1.066025,0.008932,0.011208,0.011965,0.999887,0.012064,-0.008932,-0.011964,0.999866,0.011208,0.009066,-0.011099,0.999897,0.008932,-0.011208,-0.999897,0.000864,0.002327,-0.067165,0.001711,0.000529,0.006171,346.649170,351.111969,-1.000000,0.000000,0.000000
482148230.936669,0.008774,-0.008820,-1.062164,0.008932,0.011208,0.011965,0.999887,0.012064,-0.008932,-0.011964,0.999866,0.011208,0.009066,-0.011099,0.999897,0.008932,-0.011208,-0.999897,0.000864,0.002327,-0.067165,0.001711,0.000529,0.006171,346.645538,351.108337,-1.000000,0.000000,0.000000
482148230.946123,0.008774,-0.008820,-1.062164,0.008924,0.011169,0.012036,0.999887,0.012135,-0.008923,-0.012035,0.999865,0.011169,0.009058,-0.011060,0.999898,0.008923,-0.011169,-0.999898,0.000797,0.004272,-0.066157,0.006635,-0.000581,0.007423,346.626892,351.089691,-1.000000,0.000000,0.000000
482148230.956140,0.013718,-0.008896,-1.060165,0.009130,0.011209,0.012160,0.999883,0.012262,-0.009129,-0.012159,0.999863,0.011209,0.009265,-0.011097,0.999896,0.009129,-0.011209,-0.999896,0.005687,-0.000738,-0.066129,-0.000758,0.000522,0.006160,346.626892,351.089691,-1.000000,0.000000,0.000000
482148230.966095,0.006851,-0.008820,-1.068054,0.009130,0.011209,0.012160,0.999883,0.012262,-0.009129,-0.012159,0.999863,0.011209,0.009265,-0.011097,0.999896,0.009129,-0.011209,-0.999896,0.005687,-0.000738,-0.066129,-0.000758,0.000522,0.006160,346.620697,351.083496,-1.000000,0.000000,0.000000
482148230.977920,0.009781,-0.008865,-1.066071,0.009123,0.011170,0.012262,0.999882,0.012363,-0.009122,-0.012261,0.999862,0.011169,0.009259,-0.011056,0.999896,0.009122,-0.011169,-0.999896,-0.000348,0.002350,-0.062268,-0.000782,0.000573,0.012315,346.614410,351.077209,-1.000000,0.000000,0.000000
482148230.985824,0.009811,-0.008896,-1.069031,0.009163,0.011054,0.012382,0.999880,0.012482,-0.009162,-0.012381,0.999862,0.011054,0.009299,-0.010939,0.999897,0.009162,-0.011054,-0.999897,-0.002311,0.002234,-0.068157,0.009111,0.002871,0.002516,346.614410,351.077209,-1.000000,0.000000,0.000000
482148230.996234,0.010742,-0.006927,-1.068008,0.009163,0.011054,0.012382,0.999880,0.012482,-0.009162,-0.012381,0.999862,0.011054,0.009299,-0.010939,0.999897,0.009162,-0.011054,-0.999897,-0.002311,0.002234,-0.068157,0.009111,0.002871,0.002516,346.614410,351.077209,-1.000000,0.000000,0.000000
482148231.006718,0.013824,-0.012909,-1.063095,0.009151,0.011024,0.012442,0.999879,0.012542,-0.009150,-0.012441,0.999862,0.011024,0.009287,-0.010909,0.999897,0.009150,-0.011024,-0.999897,0.000630,0.002158,-0.066173,0.001687,-0.001749,0.008629,346.614410,351.077209,-1.000000,0.000000,0.000000
482148231.016161,0.008759,-0.007843,-1.064117,0.009166,0.010952,0.012472,0.999879,0.012571,-0.009166,-0.012471,0.999862,0.010952,0.009302,-0.010836,0.999898,0.009166,-0.010952,-0.999898,0.000646,0.002056,-0.069133,0.005405,0.001689,0.002497,346.614410,351.077209,-1.000000,0.000000,0.000000
482148231.026823,0.010773,-0.008865,-1.064102,0.009171,0.010834,0.012556,0.999878,0.012654,-0.009170,-0.012555,0.999862,0.010834,0.009306,-0.010718,0.999899,0.009170,-0.010834,-0.999899,0.001572,0.003907,-0.068109,-0.006958,-0.004108,0.009817,346.614410,351.077209,-1.000000,0.000000,0.000000
482148231.035633,0.009811,-0.009888,-1.068039,0.009171,0.010834,0.012556,0.999878,0.012654,-0.009170,-0.012555,0.999862,0.010834,0.009306,-0.010718,0.999899,0.009170,-0.010834,-0.999899,0.001572,0.003907,-0.068109,-0.006958,-0.004108,0.009817,346.610352,351.073151,-1.000000,0.000000,0.000000
482148231.046239,0.008896,-0.010864,-1.070984,0.009157,0.010779,0.012705,0.999876,0.012803,-0.009156,-0.012704,0.999861,0.010778,0.009293,-0.010661,0.999900,0.009156,-0.010778,-0.999900,-0.000398,0.002935,-0.064217,-0.000790,-0.001762,0.008618,346.610352,351.073151,-1.000000,0.000000,0.000000
482148231.055482,0.010818,-0.009903,-1.067047,0.009157,0.010779,0.012705,0.999876,0.012803,-0.009156,-0.012704,0.999861,0.010778,0.009293,-0.010661,0.999900,0.009156,-0.010778,-0.999900,-0.000398,0.002935,-0.064217,-0.000790,-0.001762,0.008618,346.610352,351.073151,-1.000000,0.000000,0.000000
482148231.066091,0.010818,-0.009903,-1.067047,0.009174,0.010707,0.012759,0.999875,0.012856,-0.009173,-0.012758,0.999861,0.010706,0.009310,-0.010588,0.999901,0.009173,-0.010706,-0.999901,0.001599,0.001841,-0.064202,-0.003263,0.001696,0.009843,346.610352,351.073151,-1.000000,0.000000,0.000000
482148231.075816,0.007919,-0.013809,-1.066071,0.009116,0.010572,0.012873,0.999874,0.012969,-0.009116,-0.012872,0.999861,0.010572,0.009252,-0.010453,0.999903,0.009116,-0.010572,-0.999903,-0.000220,-0.000293,-0.071081,-0.004491,-0.001799,0.007370,346.610352,351.073151,-1.000000,0.000000,0.000000
482148231.085731,0.009842,-0.010864,-1.067062,0.009124,0.010534,0.012909,0.999874,0.013004,-0.009123,-0.012908,0.999861,0.010533,0.009259,-0.010414,0.999903,0.009123,-0.010533,-0.999903,0.001695,0.000631,-0.067144,-0.002017,-0.000646,0.004921,346.606201,351.069000,-1.000000,0.000000,0.000000
482148231.104427,0.007858,-0.012787,-1.061172,0.009124,0.010534,0.012909,0.999874,0.013004,-0.009123,-0.012908,0.999861,0.010533,0.009259,-0.010414,0.999903,0.009123,-0.010533,-0.999903,0.001695,0.000631,-0.067144,-0.002017,-0.000646,0.004921,346.606201,351.069000,-1.000000,0.000000,0.000000
482148231.105266,0.007858,-0.012787,-1.061172,0.009124,0.010534,0.012909,0.999874,0.013004,-0.009123,-0.012908,0.999861,0.010533,0.009259,-0.010414,0.999903,0.009123,-0.010533,-0.999903,0.001695,0.000631,-0.067144,-0.002017,-0.000646,0.004921,346.606201,351.069000,-1.000000,0.000000,0.000000
482148231.116723,0.007812,-0.010773,-1.060196,0.008968,0.010552,0.013059,0.999873,0.013153,-0.008968,-0.013058,0.999859,0.010552,0.009105,-0.010433,0.999904,0.008968,-0.010552,-0.999904,0.000874,-0.000313,-0.067158,0.001673,-0.001745,0.008629,346.606201,351.069000,-1.000000,0.000000,0.000000
482148231.125891,0.010818,-0.011841,-1.061157,0.008968,0.010552,0.013059,0.999873,0.013153,-0.008968,-0.013058,0.999859,0.010552,0.009105,-0.010433,0.999904,0.008968,-0.010552,-0.999904,0.000874,-0.000313,-0.067158,0.001673,-0.001745,0.008629,346.606201,351.069000,-1.000000,0.000000,0.000000
482148231.135929,0.004868,-0.008789,-1.068069,0.008792,0.010510,0.013156,0.999874,0.013248,-0.008791,-0.013155,0.999858,0.010510,0.008929,-0.010393,0.999906,0.008791,-0.010510,-0.999906,-0.002932,-0.000233,-0.062273,-0.003248,-0.004126,0.004910,346.602997,351.065796,-1.000000,0.000000,0.000000
482148231.146345,0.011749,-0.008896,-1.063110,0.008741,0.010544,0.013246,0.999873,0.013337,-0.008741,-0.013245,0.999857,0.010544,0.008880,-0.010427,0.999906,0.008741,-0.010544,-0.999906,-0.000928,-0.000229,-0.060290,0.002907,-0.001743,0.008634,346.602997,351.065796,-1.000000,0.000000,0.000000
482148231.156242,0.007935,-0.013824,-1.067062,0.008741,0.010544,0.013246,0.999873,0.013337,-0.008741,-0.013245,0.999857,0.010544,0.008880,-0.010427,0.999906,0.008741,-0.010544,-0.999906,-0.000928,-0.000229,-0.060290,0.002907,-0.001743,0.008634,346.602997,351.065796,-1.000000,0.000000,0.000000
482148231.166516,0.007935,-0.013824,-1.067062,0.008663,0.010498,0.013349,0.999872,0.013439,-0.008663,-0.013347,0.999856,0.010497,0.008803,-0.010380,0.999907,0.008663,-0.010497,-0.999907,-0.003795,0.001708,-0.068162,0.002929,-0.004118,0.001244,346.602997,351.065796,-1.000000,0.000000,0.000000
482148231.176261,0.011841,-0.011917,-1.068024,0.008720,0.010461,0.013360,0.999871,0.013450,-0.008719,-0.013359,0.999856,0.010461,0.008859,-0.010343,0.999907,0.008719,-0.010461,-0.999907,0.003030,0.001565,-0.063203,0.001703,0.005092,-0.001209,346.602997,351.065796,-1.000000,0.000000,0.000000
482148231.186351,0.011826,-0.010910,-1.067047,0.008720,0.010461,0.013360,0.999871,0.013450,-0.008719,-0.013359,0.999856,0.010461,0.008859,-0.010343,0.999907,0.008719,-0.010461,-0.999907,0.003030,0.001565,-0.063203,0.001703,0.005092,-0.001209,346.602997,351.065796,-1.000000,0.000000,0.000000
482148231.197639,0.007843,-0.009872,-1.069031,0.008677,0.010590,0.013336,0.999872,0.013427,-0.008676,-0.013335,0.999855,0.010590,0.008817,-0.010473,0.999906,0.008676,-0.010590,-0.999906,-0.000742,-0.003235,-0.067156,0.005391,-0.005245,0.002485,346.598114,351.060913,-1.000000,0.000000,0.000000
482148231.205980,0.006851,-0.008820,-1.068054,0.008711,0.010570,0.013414,0.999871,0.013505,-0.008711,-0.013413,0.999854,0.010570,0.008852,-0.010451,0.999906,0.008711,-0.010570,-0.999906,0.003130,-0.001347,-0.068117,-0.003265,-0.001776,0.009837,346.598114,351.060913,-1.000000,0.000000,0.000000
482148231.217469,0.010956,-0.015854,-1.066055,0.008672,0.010542,0.013563,0.999869,0.013654,-0.008671,-0.013562,0.999852,0.010542,0.008814,-0.010423,0.999907,0.008671,-0.010542,-0.999907,-0.000828,0.000669,-0.069124,0.005394,-0.002942,0.001257,346.598114,351.060913,-1.000000,0.000000,0.000000
482148231.226157,0.006882,-0.011780,-1.064133,0.008672,0.010542,0.013563,0.999869,0.013654,-0.008671,-0.013562,0.999852,0.010542,0.008814,-0.010423,0.999907,0.008671,-0.010542,-0.999907,-0.000828,0.000669,-0.069124,0.005394,-0.002942,0.001257,346.598114,351.060913,-1.000000,0.000000,0.000000
482148231.235564,0.010834,-0.010864,-1.066055,0.008643,0.010472,0.013594,0.999869,0.013683,-0.008642,-0.013593,0.999853,0.010472,0.008785,-0.010353,0.999908,0.008642,-0.010472,-0.999908,-0.001791,0.001652,-0.068146,-0.005715,0.002772,0.003678,346.598114,351.060913,-1.000000,0.000000,0.000000
482148231.248803,0.005951,-0.012787,-1.067078,0.008668,0.010583,0.013660,0.999868,0.013751,-0.008667,-0.013659,0.999851,0.010583,0.008812,-0.010463,0.999906,0.008667,-0.010583,-0.999906,-0.001786,-0.001197,-0.064226,0.005382,-0.000594,0.006185,346.592957,351.055756,-1.000000,0.000000,0.000000
482148231.257209,0.013901,-0.013947,-1.069000,0.008668,0.010583,0.013660,0.999868,0.013751,-0.008667,-0.013659,0.999851,0.010583,0.008812,-0.010463,0.999906,0.008667,-0.010583,-0.999906,-0.001786,-0.001197,-0.064226,0.005382,-0.000594,0.006185,346.592957,351.055756,-1.000000,0.000000,0.000000
482148231.266103,0.008820,-0.008865,-1.067062,0.008657,0.010592,0.013659,0.999868,0.013750,-0.008656,-0.013658,0.999851,0.010592,0.008801,-0.010472,0.999906,0.008656,-0.010592,-0.999906,0.002178,-0.000273,-0.066149,0.001696,-0.005279,0.001237,346.592957,351.055756,-1.000000,0.000000,0.000000
482148231.276470,0.008804,-0.008850,-1.065094,0.008561,0.010592,0.013726,0.999868,0.013816,-0.008560,-0.013725,0.999850,0.010592,0.008705,-0.010473,0.999907,0.008560,-0.010592,-0.999907,-0.002609,-0.002195,-0.067170,-0.005690,-0.003057,-0.002487,346.592957,351.055756,-1.000000,0.000000,0.000000
482148231.286131,0.007843,-0.010818,-1.065094,0.008561,0.010592,0.013726,0.999868,0.013816,-0.008560,-0.013725,0.999850,0.010592,0.008705,-0.010473,0.999907,0.008560,-0.010592,-0.999907,-0.002609,-0.002195,-0.067170,-0.005690,-0.003057,-0.002487,346.592957,351.055756,-1.000000,0.000000,0.000000
482148231.295325,0.007843,-0.010818,-1.065094,0.008624,0.010657,0.013809,0.999866,0.013900,-0.008623,-0.013808,0.999848,0.010657,0.008770,-0.010536,0.999906,0.008623,-0.010657,-0.999906,0.005278,-0.003290,-0.069094,0.004141,0.000587,0.009874,346.592957,351.055756,-1.000000,0.000000,0.000000
482148231.306297,0.010757,-0.007889,-1.066055,0.008642,0.010749,0.013856,0.999865,0.013948,-0.008642,-0.013855,0.999846,0.010749,0.008790,-0.010628,0.999905,0.008642,-0.010749,-0.999905,0.000163,0.001899,-0.065189,0.010326,0.000567,0.002516,346.585388,351.048187,-1.000000,0.000000,0.000000
482148231.315615,0.014786,-0.009979,-1.067017,0.008642,0.010749,0.013856,0.999865,0.013948,-0.008642,-0.013855,0.999846,0.010749,0.008790,-0.010628,0.999905,0.008642,-0.010749,-0.999905,0.000163,0.001899,-0.065189,0.010326,0.000567,0.002516,346.585388,351.048187,-1.000000,0.000000,0.000000
482148231.336647,0.010864,-0.012848,-1.064102,0.008781,0.010795,0.014130,0.999860,0.014224,-0.008780,-0.014129,0.999842,0.010795,0.008933,-0.010670,0.999903,0.008780,-0.010795,-0.999903,0.006005,0.000816,-0.067113,0.010393,0.001764,0.007439,346.585388,351.048187,-1.000000,0.000000,0.000000
482148231.346158,0.013672,-0.005981,-1.065048,0.008781,0.010795,0.014130,0.999860,0.014224,-0.008780,-0.014129,0.999842,0.010795,0.008933,-0.010670,0.999903,0.008780,-0.010795,-0.999903,0.006005,0.000816,-0.067113,0.010393,0.001764,0.007439,346.585388,351.048187,-1.000000,0.000000,0.000000
482148231.356078,0.007828,-0.009857,-1.067062,0.008788,0.010777,0.014220,0.999859,0.014314,-0.008787,-0.014219,0.999841,0.010777,0.008940,-0.010651,0.999903,0.008787,-0.010777,-0.999903,0.000094,-0.001079,-0.067159,-0.003189,0.001709,0.012301,346.585388,351.048187,-1.000000,0.000000,0.000000
482148231.367331,0.012787,-0.010880,-1.062134,0.008856,0.010760,0.014388,0.999856,0.014482,-0.008856,-0.014387,0.999839,0.010760,0.009010,-0.010631,0.999903,0.008856,-0.010760,-0.999903,0.002009,-0.002088,-0.064199,-0.001929,0.008585,0.004931,346.585388,351.048187,-1.000000,0.000000,0.000000
482148231.377204,0.005875,-0.010757,-1.064133,0.008982,0.010721,0.014435,0.999854,0.014530,-0.008982,-0.014434,0.999838,0.010721,0.009136,-0.010590,0.999902,0.008982,-0.010721,-0.999902,0.004690,0.004739,-0.065146,0.005458,0.004041,0.007420,346.585388,351.048187,-1.000000,0.000000,0.000000
482148231.386090,0.010757,-0.007889,-1.066055,0.008982,0.010721,0.014435,0.999854,0.014530,-0.008982,-0.014434,0.999838,0.010721,0.009136,-0.010590,0.999902,0.008982,-0.010721,-0.999902,0.004690,0.004739,-0.065146,0.005458,0.004041,0.007420,346.585388,351.048187,-1.000000,0.000000,0.000000
482148231.395756,0.010757,-0.008850,-1.061157,0.009069,0.010708,0.014548,0.999852,0.014644,-0.009068,-0.014547,0.999837,0.010707,0.009223,-0.010574,0.999902,0.009068,-0.010707,-0.999902,0.003719,-0.000172,-0.062232,0.004223,0.001724,0.007411,346.585388,351.048187,-1.000000,0.000000,0.000000
482148231.406668,0.010864,-0.012848,-1.063110,0.009017,0.010642,0.014573,0.999852,0.014668,-0.009016,-0.014572,0.999837,0.010642,0.009171,-0.010509,0.999903,0.009016,-0.010642,-0.999903,-0.003142,-0.000116,-0.064230,-0.004391,-0.000701,0.001212,346.575256,351.038055,-1.000000,0.000000,0.000000
482148231.416206,0.010773,-0.008865,-1.064102,0.009017,0.010642,0.014573,0.999852,0.014668,-0.009016,-0.014572,0.999837,0.010642,0.009171,-0.010509,0.999903,0.009016,-0.010642,-0.999903,-0.003142,-0.000116,-0.064230,-0.004391,-0.000701,0.001212,346.571564,351.034363,-1.000000,0.000000,0.000000
482148231.426678,0.010757,-0.008850,-1.062149,0.008973,0.010406,0.014561,0.999852,0.014654,-0.008973,-0.014560,0.999840,0.010406,0.009124,-0.010274,0.999906,0.008973,-0.010406,-0.999906,0.001785,0.001556,-0.061252,-0.009319,0.001554,-0.001269,346.571564,351.034363,-1.000000,0.000000,0.000000
482148231.437496,0.008820,-0.008865,-1.068039,0.009052,0.010449,0.014555,0.999852,0.014649,-0.009051,-0.014554,0.999839,0.010449,0.009203,-0.010316,0.999904,0.009051,-0.010449,-0.999904,0.001813,-0.002399,-0.063206,0.001779,0.007417,0.000022,346.571564,351.034363,-1.000000,0.000000,0.000000
482148231.446015,0.008820,-0.008865,-1.068039,0.009052,0.010449,0.014555,0.999852,0.014649,-0.009051,-0.014554,0.999839,0.010449,0.009203,-0.010316,0.999904,0.009051,-0.010449,-0.999904,0.001813,-0.002399,-0.063206,0.001779,0.007417,0.000022,346.571564,351.034363,-1.000000,0.000000,0.000000
482148231.456110,0.011795,-0.008942,-1.069977,0.009140,0.010381,0.014669,0.999849,0.014762,-0.009139,-0.014667,0.999839,0.010381,0.009291,-0.010245,0.999904,0.009139,-0.010381,-0.999904,0.001618,0.001531,-0.062245,0.002977,0.002893,0.009868,346.571564,351.034363,-1.000000,0.000000,0.000000
482148231.466399,0.007751,-0.006882,-1.067047,0.009133,0.010365,0.014693,0.999849,0.014786,-0.009133,-0.014691,0.999838,0.010365,0.009284,-0.010229,0.999905,0.009133,-0.010365,-0.999905,-0.000313,0.001500,-0.068134,0.001781,0.000469,-0.002452,346.566528,351.029327,-1.000000,0.000000,0.000000
482148231.475754,0.010727,-0.005936,-1.067032,0.009133,0.010365,0.014693,0.999849,0.014786,-0.009133,-0.014691,0.999838,0.010365,0.009284,-0.010229,0.999905,0.009133,-0.010365,-0.999905,-0.000313,0.001500,-0.068134,0.001781,0.000469,-0.002452,346.566528,351.029327,-1.000000,0.000000,0.000000
482148231.485511,0.007797,-0.009827,-1.064117,0.009178,0.010386,0.014752,0.999848,0.014846,-0.009178,-0.014751,0.999837,0.010385,0.009330,-0.010248,0.999904,0.009178,-0.010385,-0.999904,0.002618,0.001444,-0.070073,0.004242,-0.002966,-0.001215,346.566528,351.029327,-1.000000,0.000000,0.000000
482148231.496262,0.009735,-0.007858,-1.064117,0.009113,0.010310,0.014734,0.999849,0.014827,-0.009112,-0.014733,0.999838,0.010310,0.009264,-0.010174,0.999905,0.009112,-0.010310,-0.999905,-0.001361,0.003428,-0.067142,-0.000702,-0.002982,0.001225,346.566528,351.029327,-1.000000,0.000000,0.000000
482148231.505599,0.008896,-0.012833,-1.065094,0.009113,0.010310,0.014734,0.999849,0.014827,-0.009112,-0.014733,0.999838,0.010310,0.009264,-0.010174,0.999905,0.009112,-0.010310,-0.999905,-0.001361,0.003428,-0.067142,-0.000702,-0.002982,0.001225,346.566528,351.029327,-1.000000,0.000000,0.000000
482148231.516209,0.009689,-0.004913,-1.068024,0.009073,0.010242,0.014764,0.999848,0.014856,-0.009072,-0.014763,0.999839,0.010242,0.009223,-0.010106,0.999906,0.009072,-0.010242,-0.999906,-0.001275,0.000415,-0.064211,0.000512,-0.002932,0.006154,346.566528,351.029327,-1.000000,0.000000,0.000000
482148231.525890,0.007812,-0.009842,-1.066071,0.009040,0.010212,0.014782,0.999849,0.014873,-0.009039,-0.014781,0.999839,0.010212,0.009190,-0.010076,0.999907,0.009039,-0.010212,-0.999907,0.000696,0.002353,-0.064210,-0.000707,-0.001827,0.001226,346.560822,351.023621,-1.000000,0.000000,0.000000
482148231.536000,0.005875,-0.009811,-1.067078,0.009040,0.010212,0.014782,0.999849,0.014873,-0.009039,-0.014781,0.999839,0.010212,0.009190,-0.010076,0.999907,0.009039,-0.010212,-0.999907,0.000696,0.002353,-0.064210,-0.000707,-0.001827,0.001226,346.560822,351.023621,-1.000000,0.000000,0.000000
482148231.545583,0.013748,-0.008942,-1.066040,0.009037,0.010173,0.014854,0.999847,0.014945,-0.009036,-0.014853,0.999838,0.010173,0.009187,-0.010037,0.999907,0.009036,-0.010173,-0.999907,0.000653,0.005260,-0.068116,-0.000726,-0.005250,0.006145,346.560822,351.023621,-1.000000,0.000000,0.000000
482148231.555803,0.003830,-0.007767,-1.065125,0.008970,0.010119,0.014926,0.999847,0.015016,-0.008969,-0.014925,0.999837,0.010119,0.009119,-0.009984,0.999909,0.008969,-0.010119,-0.999909,-0.001156,0.000277,-0.066162,-0.004435,-0.005257,0.008590,346.560822,351.023621,-1.000000,0.000000,0.000000
482148231.567085,0.006836,-0.009796,-1.063141,0.008943,0.010010,0.014938,0.999847,0.015027,-0.008943,-0.014937,0.999838,0.010009,0.009092,-0.009874,0.999910,0.008943,-0.010009,-0.999910,0.004806,0.001068,-0.066130,-0.005643,-0.008803,-0.000038,346.560822,351.023621,-1.000000,0.000000,0.000000
482148231.575980,0.011719,-0.006958,-1.068008,0.008943,0.010010,0.014938,0.999847,0.015027,-0.008943,-0.014937,0.999838,0.010009,0.009092,-0.009874,0.999910,0.008943,-0.010009,-0.999910,0.004806,0.001068,-0.066130,-0.005643,-0.008803,-0.000038,346.553162,351.015961,-1.000000,0.000000,0.000000
482148231.585514,0.011719,-0.006958,-1.068008,0.008848,0.009947,0.015011,0.999847,0.015098,-0.008847,-0.015010,0.999838,0.009947,0.008996,-0.009812,0.999911,0.008847,-0.009947,-0.999911,-0.005018,0.002180,-0.065213,-0.000733,-0.000625,0.007383,346.553162,351.015961,-1.000000,0.000000,0.000000
482148231.596765,0.010742,-0.006927,-1.068008,0.008823,0.010003,0.015077,0.999846,0.015164,-0.008823,-0.015076,0.999836,0.010003,0.008973,-0.009868,0.999911,0.008823,-0.010003,-0.999911,-0.001987,0.000207,-0.063230,-0.001950,0.001632,0.002457,346.553162,351.015961,-1.000000,0.000000,0.000000
482148231.606213,0.010742,-0.006927,-1.068008,0.008823,0.010003,0.015077,0.999846,0.015164,-0.008823,-0.015076,0.999836,0.010003,0.008973,-0.009868,0.999911,0.008823,-0.010003,-0.999911,-0.001987,0.000207,-0.063230,-0.001950,0.001632,0.002457,346.553162,351.015961,-1.000000,0.000000,0.000000
482148231.615696,0.009903,-0.014816,-1.063126,0.008908,0.009996,0.015077,0.999845,0.015165,-0.008907,-0.015075,0.999836,0.009996,0.009057,-0.009860,0.999910,0.008907,-0.009996,-0.999910,0.002811,0.003038,-0.068098,0.006685,0.001684,0.001265,346.553162,351.015961,-1.000000,0.000000,0.000000
482148231.626195,0.009811,-0.011810,-1.060196,0.008888,0.009950,0.015179,0.999844,0.015266,-0.008887,-0.015177,0.999835,0.009950,0.009037,-0.009813,0.999911,0.008887,-0.009950,-0.999911,0.001855,0.003022,-0.068097,0.001736,-0.004093,0.004927,346.547577,351.010376,-1.000000,0.000000,0.000000
482148231.635769,0.007858,-0.012787,-1.061172,0.008888,0.009950,0.015179,0.999844,0.015266,-0.008887,-0.015177,0.999835,0.009950,0.009037,-0.009813,0.999911,0.008887,-0.009950,-0.999911,0.001855,0.003022,-0.068097,0.001736,-0.004093,0.004927,346.547577,351.010376,-1.000000,0.000000,0.000000
482148231.645999,0.006851,-0.008820,-1.068054,0.008906,0.010048,0.015143,0.999844,0.015231,-0.008905,-0.015141,0.999835,0.010048,0.009057,-0.009911,0.999910,0.008905,-0.010048,-0.999910,0.000998,-0.004769,-0.063216,0.003009,0.000440,-0.006140,346.547577,351.010376,-1.000000,0.000000,0.000000
482148231.656170,0.010696,-0.005905,-1.063095,0.008844,0.010181,0.015226,0.999844,0.015315,-0.008844,-0.015225,0.999832,0.010181,0.008998,-0.010045,0.999909,0.008844,-0.010181,-0.999909,-0.000985,-0.002606,-0.061263,0.002987,-0.000652,0.001244,346.547577,351.010376,-1.000000,0.000000,0.000000
482148231.666166,0.011749,-0.007935,-1.067047,0.008844,0.010181,0.015226,0.999844,0.015315,-0.008844,-0.015225,0.999832,0.010181,0.008998,-0.010045,0.999909,0.008844,-0.010181,-0.999909,-0.000985,-0.002606,-0.061263,0.002987,-0.000652,0.001244,346.547577,351.010376,-1.000000,0.000000,0.000000
482148231.676474,0.006729,-0.004837,-1.066071,0.008769,0.010103,0.015239,0.999844,0.015326,-0.008769,-0.015238,0.999833,0.010102,0.008922,-0.009967,0.999911,0.008769,-0.010102,-0.999911,-0.001918,0.001283,-0.068144,-0.005641,-0.006510,-0.001266,346.543518,351.006317,-1.000000,0.000000,0.000000
482148231.687261,0.013763,-0.008957,-1.068008,0.008753,0.010071,0.015286,0.999844,0.015373,-0.008752,-0.015285,0.999832,0.010070,0.008906,-0.009935,0.999911,0.008752,-0.010070,-0.999911,0.001944,0.004165,-0.063184,0.004192,-0.000582,0.008636,346.543518,351.006317,-1.000000,0.000000,0.000000
482148231.696200,0.011856,-0.011932,-1.069016,0.008753,0.010071,0.015286,0.999844,0.015373,-0.008752,-0.015285,0.999832,0.010070,0.008906,-0.009935,0.999911,0.008752,-0.010070,-0.999911,0.001944,0.004165,-0.063184,0.004192,-0.000582,0.008636,346.543518,351.006317,-1.000000,0.000000,0.000000
482148231.706156,0.013718,-0.007950,-1.066040,0.008772,0.010008,0.015346,0.999842,0.015432,-0.008771,-0.015344,0.999832,0.010008,0.008924,-0.009872,0.999911,0.008771,-0.010008,-0.999911,0.002978,0.002073,-0.067136,-0.000735,-0.002946,0.006148,346.543518,351.006317,-1.000000,0.000000,0.000000
482148231.716440,0.006821,-0.009781,-1.062180,0.008841,0.009994,0.015339,0.999842,0.015426,-0.008841,-0.015338,0.999832,0.009993,0.008993,-0.009856,0.999911,0.008841,-0.009993,-0.999911,0.004923,0.001037,-0.068097,0.006682,0.002829,0.000036,346.543518,351.006317,-1.000000,0.000000,0.000000
482148231.725548,0.006821,-0.009781,-1.062180,0.008841,0.009994,0.015339,0.999842,0.015426,-0.008841,-0.015338,0.999832,0.009993,0.008993,-0.009856,0.999911,0.008841,-0.009993,-0.999911,0.004923,0.001037,-0.068097,0.006682,0.002829,0.000036,346.543518,351.006317,-1.000000,0.000000,0.000000
482148231.736313,0.008835,-0.011810,-1.062164,0.008843,0.010014,0.015363,0.999842,0.015450,-0.008842,-0.015361,0.999832,0.010014,0.008996,-0.009877,0.999911,0.008842,-0.010014,-0.999911,0.003014,-0.001918,-0.069105,-0.001960,-0.004138,0.002447,346.540344,351.003143,-1.000000,0.000000,0.000000
482148231.746219,0.007782,-0.008820,-1.064117,0.008814,0.009980,0.015512,0.999839,0.015598,-0.008814,-0.015510,0.999830,0.009980,0.008968,-0.009841,0.999911,0.008814,-0.009980,-0.999911,-0.001993,0.000199,-0.062268,0.000483,-0.006377,0.008610,346.540344,351.003143,-1.000000,0.000000,0.000000
482148231.755982,0.011734,-0.007919,-1.066055,0.008814,0.009980,0.015512,0.999839,0.015598,-0.008814,-0.015510,0.999830,0.009980,0.008968,-0.009841,0.999911,0.008814,-0.009980,-0.999911,-0.001993,0.000199,-0.062268,0.000483,-0.006377,0.008610,346.540344,351.003143,-1.000000,0.000000,0.000000
482148231.766036,0.009888,-0.013824,-1.064117,0.008799,0.010042,0.015607,0.999838,0.015695,-0.008798,-0.015606,0.999828,0.010042,0.008954,-0.009903,0.999911,0.008798,-0.010042,-0.999911,0.000037,-0.001768,-0.062253,0.005411,0.001762,0.011107,346.540344,351.003143,-1.000000,0.000000,0.000000
482148231.776807,0.014771,-0.008972,-1.067017,0.008752,0.010008,0.015668,0.999838,0.015754,-0.008752,-0.015666,0.999827,0.010008,0.008908,-0.009869,0.999912,0.008752,-0.010008,-0.999912,-0.000970,0.001188,-0.064206,0.006659,-0.000582,0.006185,346.540344,351.003143,-1.000000,0.000000,0.000000
482148231.786551,0.007980,-0.015823,-1.068039,0.008752,0.010008,0.015668,0.999838,0.015754,-0.008752,-0.015666,0.999827,0.010008,0.008908,-0.009869,0.999912,0.008752,-0.010008,-0.999912,-0.000970,0.001188,-0.064206,0.006659,-0.000582,0.006185,346.537842,351.000641,-1.000000,0.000000,0.000000
482148231.796658,0.011795,-0.009933,-1.068024,0.008788,0.009988,0.015721,0.999836,0.015807,-0.008788,-0.015719,0.999827,0.009988,0.008944,-0.009848,0.999911,0.008788,-0.009988,-0.999911,0.002946,0.002069,-0.066144,0.007906,-0.000613,0.001266,346.537842,351.000641,-1.000000,0.000000,0.000000
482148231.806300,0.008789,-0.008835,-1.063126,0.008876,0.010041,0.015797,0.999834,0.015885,-0.008875,-0.015796,0.999825,0.010041,0.009033,-0.009899,0.999910,0.008875,-0.010041,-0.999910,0.005895,0.001069,-0.067106,-0.003213,-0.000636,0.007371,346.537842,351.000641,-1.000000,0.000000,0.000000
482148231.817575,0.008789,-0.008835,-1.064117,0.008888,0.010143,0.015852,0.999833,0.015940,-0.008887,-0.015850,0.999823,0.010142,0.009047,-0.010000,0.999909,0.008887,-0.010142,-0.999909,-0.000907,-0.005681,-0.068130,0.001729,0.005161,0.006171,346.537842,351.000641,-1.000000,0.000000,0.000000
482148231.828319,0.008789,-0.008835,-1.064117,0.008888,0.010143,0.015852,0.999833,0.015940,-0.008887,-0.015850,0.999823,0.010142,0.009047,-0.010000,0.999909,0.008887,-0.010142,-0.999909,-0.000907,-0.005681,-0.068130,0.001729,0.005161,0.006171,346.537842,351.000641,-1.000000,0.000000,0.000000
482148231.836124,0.012802,-0.010895,-1.064087,0.008904,0.010126,0.015977,0.999831,0.016066,-0.008904,-0.015975,0.999821,0.010126,0.009065,-0.009982,0.999909,0.008904,-0.010126,-0.999909,-0.000115,0.001291,-0.063217,0.001724,0.005173,0.007402,346.532440,350.995239,-1.000000,0.000000,0.000000
482148231.846339,0.014847,-0.013901,-1.061127,0.008885,0.010043,0.016043,0.999830,0.016131,-0.008885,-0.016042,0.999821,0.010043,0.009045,-0.009899,0.999910,0.008885,-0.010043,-0.999910,-0.000096,0.001208,-0.064207,-0.006912,-0.000663,0.007354,346.532440,350.995239,-1.000000,0.000000,0.000000
482148231.856201,0.007736,-0.006866,-1.066055,0.008885,0.010043,0.016043,0.999830,0.016131,-0.008885,-0.016042,0.999821,0.010043,0.009045,-0.009899,0.999910,0.008885,-0.010043,-0.999910,-0.000096,0.001208,-0.064207,-0.006912,-0.000663,0.007354,346.532440,350.995239,-1.000000,0.000000,0.000000
482148231.866376,0.010773,-0.008865,-1.064102,0.008960,0.010035,0.016132,0.999828,0.016221,-0.008960,-0.016131,0.999820,0.010035,0.009121,-0.009888,0.999910,0.008960,-0.010035,-0.999910,0.003842,-0.000860,-0.064177,0.005434,0.002860,0.003723,346.532440,350.995239,-1.000000,0.000000,0.000000
482148231.876414,0.008850,-0.009888,-1.069992,0.009078,0.010086,0.016149,0.999827,0.016240,-0.009077,-0.016148,0.999819,0.010086,0.009239,-0.009938,0.999908,0.009077,-0.010086,-0.999908,0.005770,-0.003815,-0.061219,-0.001965,0.000501,0.003685,346.532440,350.995239,-1.000000,0.000000,0.000000
482148231.886263,0.013763,-0.010895,-1.061142,0.009078,0.010086,0.016149,0.999827,0.016240,-0.009077,-0.016148,0.999819,0.010086,0.009239,-0.009938,0.999908,0.009077,-0.010086,-0.999908,0.005770,-0.003815,-0.061219,-0.001965,0.000501,0.003685,346.528564,350.991364,-1.000000,0.000000,0.000000
482148231.896054,0.007874,-0.011841,-1.067062,0.008994,0.009990,0.016323,0.999825,0.016412,-0.008994,-0.016322,0.999817,0.009990,0.009156,-0.009842,0.999910,0.008994,-0.009990,-0.999910,0.001779,0.001125,-0.064193,0.001718,-0.005216,0.007386,346.528564,350.991364,-1.000000,0.000000,0.000000
482148231.906388,0.011703,-0.006943,-1.065063,0.008996,0.010017,0.016419,0.999823,0.016508,-0.008996,-0.016417,0.999815,0.010017,0.009160,-0.009868,0.999909,0.008996,-0.010017,-0.999909,-0.000146,0.000129,-0.070083,0.006638,0.004099,0.012347,346.528564,350.991364,-1.000000,0.000000,0.000000
482148231.918383,0.009781,-0.009857,-1.064117,0.008996,0.010017,0.016419,0.999823,0.016508,-0.008996,-0.016417,0.999815,0.010017,0.009160,-0.009868,0.999909,0.008996,-0.010017,-0.999909,-0.000146,0.000129,-0.070083,0.006638,0.004099,0.012347,346.528564,350.991364,-1.000000,0.000000,0.000000
482148231.926315,0.010834,-0.011856,-1.063110,0.009022,0.010094,0.016490,0.999822,0.016580,-0.009022,-0.016488,0.999813,0.010093,0.009187,-0.009943,0.999908,0.009022,-0.010093,-0.999908,-0.001148,-0.001747,-0.067154,0.005432,0.000554,0.003719,346.528564,350.991364,-1.000000,0.000000,0.000000
482148231.935767,0.010834,-0.011856,-1.063110,0.009030,0.010049,0.016561,0.999821,0.016651,-0.009030,-0.016560,0.999812,0.010049,0.009195,-0.009897,0.999909,0.009030,-0.010049,-0.999909,0.002674,0.003106,-0.065155,-0.000739,-0.006417,0.003679,346.528564,350.991364,-1.000000,0.000000,0.000000
482148231.948927,0.007874,-0.012802,-1.063126,0.009037,0.009991,0.016639,0.999819,0.016728,-0.009037,-0.016638,0.999812,0.009991,0.009202,-0.009839,0.999909,0.009037,-0.009991,-0.999909,0.000744,0.000134,-0.064208,0.004204,0.000526,0.001251,346.523499,350.986298,-1.000000,0.000000,0.000000
482148231.962768,0.009796,-0.008881,-1.067062,0.009047,0.010060,0.016675,0.999819,0.016764,-0.009047,-0.016673,0.999810,0.010060,0.009214,-0.009907,0.999908,0.009047,-0.010060,-0.999908,0.001787,-0.001796,-0.063202,0.005421,-0.002888,0.006175,346.523499,350.986298,-1.000000,0.000000,0.000000
482148231.965675,0.009796,-0.008881,-1.067062,0.009047,0.010060,0.016675,0.999819,0.016764,-0.009047,-0.016673,0.999810,0.010060,0.009214,-0.009907,0.999908,0.009047,-0.010060,-0.999908,0.001787,-0.001796,-0.063202,0.005421,-0.002888,0.006175,346.523499,350.986298,-1.000000,0.000000,0.000000
482148231.977081,0.012741,-0.008881,-1.060165,0.008934,0.010144,0.016807,0.999817,0.016896,-0.008933,-0.016805,0.999807,0.010144,0.009103,-0.009992,0.999909,0.008933,-0.010144,-0.999909,-0.001060,-0.002658,-0.063217,0.001722,0.004023,0.007400,346.523499,350.986298,-1.000000,0.000000,0.000000
482148231.987068,0.010742,-0.006927,-1.067032,0.008934,0.010144,0.016807,0.999817,0.016896,-0.008933,-0.016805,0.999807,0.010144,0.009103,-0.009992,0.999909,0.008933,-0.010144,-0.999909,-0.001060,-0.002658,-0.063217,0.001722,0.004023,0.007400,346.523499,350.986298,-1.000000,0.000000,0.000000
482148231.996086,0.011795,-0.009933,-1.068024,0.009032,0.010115,0.016861,0.999816,0.016951,-0.009032,-0.016859,0.999807,0.010114,0.009201,-0.009960,0.999908,0.009032,-0.010114,-0.999908,0.000764,0.001234,-0.067154,-0.001970,0.009749,0.004930,346.523499,350.986298,-1.000000,0.000000,0.000000
482148232.005580,0.013687,-0.006973,-1.065048,0.009111,0.009959,0.016956,0.999813,0.017046,-0.009110,-0.016955,0.999807,0.009959,0.009278,-0.009802,0.999909,0.009110,-0.009959,-0.999909,0.001632,0.003031,-0.067123,-0.003214,-0.000639,0.006139,346.519073,350.981873,-1.000000,0.000000,0.000000
482148232.019066,0.010773,-0.009857,-1.062149,0.009111,0.009959,0.016956,0.999813,0.017046,-0.009110,-0.016955,0.999807,0.009959,0.009278,-0.009802,0.999909,0.009110,-0.009959,-0.999909,0.001632,0.003031,-0.067123,-0.003214,-0.000639,0.006139,346.519073,350.981873,-1.000000,0.000000,0.000000
482148232.028025,0.009735,-0.007858,-1.063126,0.009138,0.009928,0.016963,0.999813,0.017052,-0.009137,-0.016961,0.999807,0.009928,0.009305,-0.009771,0.999909,0.009137,-0.009928,-0.999909,0.001605,0.003000,-0.067123,-0.000718,0.001614,-0.002463,346.519073,350.981873,-1.000000,0.000000,0.000000
482148232.038682,0.007797,-0.009827,-1.064117,0.009138,0.009928,0.016963,0.999813,0.017052,-0.009137,-0.016961,0.999807,0.009928,0.009305,-0.009771,0.999909,0.009137,-0.009928,-0.999909,0.001605,0.003000,-0.067123,-0.000718,0.001614,-0.002463,346.519073,350.981873,-1.000000,0.000000,0.000000
482148232.046169,0.009888,-0.012863,-1.067062,0.009155,0.009944,0.017057,0.999811,0.017146,-0.009154,-0.017055,0.999805,0.009944,0.009323,-0.009786,0.999909,0.009154,-0.009944,-0.999909,0.004533,0.002971,-0.065140,0.002954,-0.004066,0.004930,346.514252,350.977051,-1.000000,0.000000,0.000000
482148232.059040,0.009933,-0.013870,-1.069992,0.009178,0.009961,0.017158,0.999809,0.017248,-0.009178,-0.017156,0.999803,0.009961,0.009348,-0.009802,0.999908,0.009178,-0.009961,-0.999908,0.001595,0.000104,-0.062241,0.000472,0.000578,0.009851,346.514252,350.977051,-1.000000,0.000000,0.000000
482148232.065982,0.009933,-0.013870,-1.069992,0.009178,0.009961,0.017158,0.999809,0.017248,-0.009178,-0.017156,0.999803,0.009961,0.009348,-0.009802,0.999908,0.009178,-0.009961,-0.999908,0.001595,0.000104,-0.062241,0.000472,0.000578,0.009851,346.514252,350.977051,-1.000000,0.000000,0.000000
482148232.076368,0.008743,-0.006882,-1.065079,0.009147,0.009905,0.017302,0.999807,0.017391,-0.009146,-0.017300,0.999801,0.009905,0.009317,-0.009745,0.999909,0.009146,-0.009905,-0.999909,-0.001349,0.000078,-0.064208,0.011594,0.001747,0.002517,346.514252,350.977051,-1.000000,0.000000,0.000000
482148232.086701,0.011765,-0.007950,-1.069977,0.009176,0.010005,0.017344,0.999806,0.017434,-0.009176,-0.017342,0.999800,0.010004,0.009348,-0.009843,0.999908,0.009176,-0.010004,-0.999908,0.000712,-0.002859,-0.067155,0.004189,0.006335,0.004953,346.514252,350.977051,-1.000000,0.000000,0.000000
482148232.104701,0.011765,-0.007950,-1.069977,0.009176,0.010005,0.017344,0.999806,0.017434,-0.009176,-0.017342,0.999800,0.010004,0.009348,-0.009843,0.999908,0.009176,-0.010004,-0.999908,0.000712,-0.002859,-0.067155,0.004189,0.006335,0.004953,346.514252,350.977051,-1.000000,0.000000,0.000000
482148232.115219,0.008820,-0.008865,-1.067062,0.009192,0.009955,0.017571,0.999802,0.017661,-0.009191,-0.017569,0.999796,0.009955,0.009365,-0.009791,0.999908,0.009191,-0.009955,-0.999908,0.002573,0.002005,-0.070069,-0.004443,0.003954,0.003678,346.514252,350.977051,-1.000000,0.000000,0.000000
482148232.126328,0.014755,-0.009949,-1.063080,0.009192,0.009955,0.017571,0.999802,0.017661,-0.009191,-0.017569,0.999796,0.009955,0.009365,-0.009791,0.999908,0.009191,-0.009955,-0.999908,0.002573,0.002005,-0.070069,-0.004443,0.003954,0.003678,346.511993,350.974792,-1.000000,0.000000,0.000000
482148232.136147,0.008911,-0.012848,-1.068039,0.009127,0.010048,0.017613,0.999802,0.017703,-0.009126,-0.017611,0.999794,0.010048,0.009302,-0.009885,0.999908,0.009126,-0.010048,-0.999908,0.000731,-0.001824,-0.068131,-0.000765,-0.002886,0.011070,346.511993,350.974792,-1.000000,0.000000,0.000000
482148232.146075,0.014832,-0.011963,-1.067993,0.009098,0.010015,0.017709,0.999800,0.017798,-0.009098,-0.017707,0.999793,0.010015,0.009274,-0.009852,0.999908,0.009098,-0.010015,-0.999908,-0.000278,0.001149,-0.067154,0.000471,-0.001734,0.009847,346.511993,350.974792,-1.000000,0.000000,0.000000
482148232.156167,0.011780,-0.010864,-1.061157,0.009098,0.010015,0.017709,0.999800,0.017798,-0.009098,-0.017707,0.999793,0.010015,0.009274,-0.009852,0.999908,0.009098,-0.010015,-0.999908,-0.000278,0.001149,-0.067154,0.000471,-0.001734,0.009847,346.506317,350.969116,-1.000000,0.000000,0.000000
482148232.165902,0.005997,-0.014771,-1.068054,0.009033,0.010067,0.017696,0.999801,0.017785,-0.009032,-0.017694,0.999793,0.010067,0.009209,-0.009905,0.999909,0.009032,-0.010067,-0.999909,-0.000121,-0.002781,-0.068130,0.005455,-0.007606,-0.006144,346.506317,350.969116,-1.000000,0.000000,0.000000
482148232.176138,0.011734,-0.008881,-1.062149,0.009043,0.010079,0.017774,0.999800,0.017863,-0.009042,-0.017772,0.999791,0.010079,0.009221,-0.009916,0.999908,0.009042,-0.010079,-0.999908,-0.000131,-0.002769,-0.068131,0.000477,0.002877,0.008623,346.506317,350.969116,-1.000000,0.000000,0.000000
482148232.186429,0.011734,-0.008881,-1.062149,0.009043,0.010079,0.017774,0.999800,0.017863,-0.009042,-0.017772,0.999791,0.010079,0.009221,-0.009916,0.999908,0.009042,-0.010079,-0.999908,-0.000131,-0.002769,-0.068131,0.000477,0.002877,0.008623,346.506317,350.969116,-1.000000,0.000000,0.000000
482148232.196652,0.008728,-0.006866,-1.064102,0.009130,0.010059,0.017826,0.999798,0.017917,-0.009130,-0.017825,0.999791,0.010059,0.009308,-0.009894,0.999908,0.009130,-0.010059,-0.999908,0.002650,-0.000805,-0.061249,-0.004416,0.000433,-0.003714,346.498932,350.961731,-1.000000,0.000000,0.000000
482148232.207302,0.011780,-0.010864,-1.062149,0.008991,0.010123,0.017899,0.999798,0.017988,-0.008990,-0.017897,0.999789,0.010123,0.009170,-0.009960,0.999908,0.008990,-0.010123,-0.999908,-0.002993,-0.004648,-0.068146,0.000466,-0.007482,0.012300,346.498932,350.961731,-1.000000,0.000000,0.000000
482148232.216503,0.010849,-0.009918,-1.070969,0.008989,0.010032,0.018018,0.999796,0.018107,-0.008989,-0.018016,0.999787,0.010032,0.009169,-0.009868,0.999909,0.008989,-0.010032,-0.999909,-0.000261,0.003165,-0.064193,0.005437,-0.000623,0.000023,346.498932,350.961731,-1.000000,0.000000,0.000000
