Timestamp,Accel_X,Accel_Y,Accel_Z,Roll,Pitch,Yaw,RM11,RM12,RM13,RM21,RM22,RM23,RM31,RM32,RM33,GravAcc_X,GravAcc_Y,GravAcc_Z,UserAcc_X,UserAcc_Y,UserAcc_Z,RotRate_X,RotRate_Y,RotRate_Z,MagHeading,TrueHeading,HeadingAccuracy,Course,Speed
482148815.921104,0.008713,-0.004898,-1.067047,0.009302,0.009665,0.031513,0.999457,0.031596,-0.009302,-0.031507,0.999457,0.009665,0.009602,-0.009367,0.999910,0.009302,-0.009665,-0.999910,-0.000482,0.000800,-0.067152,-0.008503,-0.004235,0.005463,345.408051,349.870850,-1.000000,0.000000,0.000000
482148815.939160,0.011780,-0.010849,-1.060181,0.009302,0.009665,0.031513,0.999457,0.031596,-0.009302,-0.031507,0.999457,0.009665,0.009602,-0.009367,0.999910,0.009302,-0.009665,-0.999910,-0.000482,0.000800,-0.067152,-0.008503,-0.004235,0.005463,345.408051,349.870850,-1.000000,0.000000,0.000000
482148815.949823,0.009598,-0.002884,-1.060181,0.009302,0.009665,0.031513,0.999457,0.031596,-0.009302,-0.031507,0.999457,0.009665,0.009602,-0.009367,0.999910,0.009302,-0.009665,-0.999910,-0.000482,0.000800,-0.067152,-0.008503,-0.004235,0.005463,345.408051,349.870850,-1.000000,0.000000,0.000000
482148815.972166,0.008698,-0.005844,-1.060181,0.009302,0.009665,0.031513,0.999457,0.031596,-0.009302,-0.031507,0.999457,0.009665,0.009602,-0.009367,0.999910,0.009302,-0.009665,-0.999910,-0.000482,0.000800,-0.067152,-0.008503,-0.004235,0.005463,345.408051,349.870850,-1.000000,0.000000,0.000000
482148815.979631,0.013702,-0.007935,-1.063095,0.009302,0.009665,0.031513,0.999457,0.031596,-0.009302,-0.031507,0.999457,0.009665,0.009602,-0.009367,0.999910,0.009302,-0.009665,-0.999910,-0.000482,0.000800,-0.067152,-0.008503,-0.004235,0.005463,345.408051,349.870850,-1.000000,0.000000,0.000000
482148815.992598,0.007858,-0.012787,-1.062164,0.009302,0.009665,0.031513,0.999457,0.031596,-0.009302,-0.031507,0.999457,0.009665,0.009602,-0.009367,0.999910,0.009302,-0.009665,-0.999910,-0.000482,0.000800,-0.067152,-0.008503,-0.004235,0.005463,345.408051,349.870850,-1.000000,0.000000,0.000000
482148815.999583,0.009720,-0.007843,-1.062164,0.009302,0.009665,0.031513,0.999457,0.031596,-0.009302,-0.031507,0.999457,0.009665,0.009602,-0.009367,0.999910,0.009302,-0.009665,-0.999910,-0.000482,0.000800,-0.067152,-0.008503,-0.004235,0.005463,345.408051,349.870850,-1.000000,0.000000,0.000000
482148816.011410,0.006744,-0.006790,-1.060196,0.009302,0.009665,0.031513,0.999457,0.031596,-0.009302,-0.031507,0.999457,0.009665,0.009602,-0.009367,0.999910,0.009302,-0.009665,-0.999910,-0.000482,0.000800,-0.067152,-0.008503,-0.004235,0.005463,345.408051,349.870850,-1.000000,0.000000,0.000000
482148816.019684,0.011719,-0.007904,-1.064102,0.009302,0.009665,0.031513,0.999457,0.031596,-0.009302,-0.031507,0.999457,0.009665,0.009602,-0.009367,0.999910,0.009302,-0.009665,-0.999910,-0.000482,0.000800,-0.067152,-0.008503,-0.004235,0.005463,345.408051,349.870850,-1.000000,0.000000,0.000000
482148816.030789,0.008636,-0.002899,-1.064102,0.009302,0.009665,0.031513,0.999457,0.031596,-0.009302,-0.031507,0.999457,0.009665,0.009602,-0.009367,0.999910,0.009302,-0.009665,-0.999910,-0.000482,0.000800,-0.067152,-0.008503,-0.004235,0.005463,345.408051,349.870850,-1.000000,0.000000,0.000000
482148816.042668,0.011795,-0.010880,-1.063110,0.009302,0.009665,0.031513,0.999457,0.031596,-0.009302,-0.031507,0.999457,0.009665,0.009602,-0.009367,0.999910,0.009302,-0.009665,-0.999910,-0.000482,0.000800,-0.067152,-0.008503,-0.004235,0.005463,345.408051,349.870850,-1.000000,0.000000,0.000000
482148816.049599,0.011795,-0.010880,-1.063110,0.009302,0.009665,0.031513,0.999457,0.031596,-0.009302,-0.031507,0.999457,0.009665,0.009602,-0.009367,0.999910,0.009302,-0.009665,-0.999910,-0.000482,0.000800,-0.067152,-0.008503,-0.004235,0.005463,345.408051,349.870850,-1.000000,0.000000,0.000000
482148816.060163,0.010803,-0.008896,-1.067047,0.009302,0.009665,0.031513,0.999457,0.031596,-0.009302,-0.031507,0.999457,0.009665,0.009602,-0.009367,0.999910,0.009302,-0.009665,-0.999910,-0.000482,0.000800,-0.067152,-0.008503,-0.004235,0.005463,345.408051,349.870850,-1.000000,0.000000,0.000000
482148816.069041,0.011917,-0.015869,-1.063110,0.009302,0.009665,0.031513,0.999457,0.031596,-0.009302,-0.031507,0.999457,0.009665,0.009602,-0.009367,0.999910,0.009302,-0.009665,-0.999910,-0.000482,0.000800,-0.067152,-0.008503,-0.004235,0.005463,345.408051,349.870850,-1.000000,0.000000,0.000000
482148816.080003,0.007843,-0.010818,-1.065094,0.009302,0.009665,0.031513,0.999457,0.031596,-0.009302,-0.031507,0.999457,0.009665,0.009602,-0.009367,0.999910,0.009302,-0.009665,-0.999910,-0.000482,0.000800,-0.067152,-0.008503,-0.004235,0.005463,345.408051,349.870850,-1.000000,0.000000,0.000000
482148816.096405,0.005859,-0.010727,-1.060211,0.009302,0.009665,0.031513,0.999457,0.031596,-0.009302,-0.031507,0.999457,0.009665,0.009602,-0.009367,0.999910,0.009302,-0.009665,-0.999910,-0.000482,0.000800,-0.067152,-0.008503,-0.004235,0.005463,345.408051,349.870850,-1.000000,0.000000,0.000000
482148816.099035,0.005859,-0.010727,-1.060211,0.009302,0.009665,0.031513,0.999457,0.031596,-0.009302,-0.031507,0.999457,0.009665,0.009602,-0.009367,0.999910,0.009302,-0.009665,-0.999910,-0.000482,0.000800,-0.067152,-0.008503,-0.004235,0.005463,345.408051,349.870850,-1.000000,0.000000,0.000000
482148816.111719,0.009750,-0.008835,-1.062164,0.009302,0.009665,0.031513,0.999457,0.031596,-0.009302,-0.031507,0.999457,0.009665,0.009602,-0.009367,0.999910,0.009302,-0.009665,-0.999910,-0.000482,0.000800,-0.067152,-0.008503,-0.004235,0.005463,345.408051,349.870850,-1.000000,0.000000,0.000000
482148816.119615,0.006897,-0.012741,-1.060211,0.009302,0.009665,0.031513,0.999457,0.031596,-0.009302,-0.031507,0.999457,0.009665,0.009602,-0.009367,0.999910,0.009302,-0.009665,-0.999910,-0.000482,0.000800,-0.067152,-0.008503,-0.004235,0.005463,345.408051,349.870850,-1.000000,0.000000,0.000000
482148816.129828,0.011871,-0.012909,-1.067047,0.009302,0.009665,0.031513,0.999457,0.031596,-0.009302,-0.031507,0.999457,0.009665,0.009602,-0.009367,0.999910,0.009302,-0.009665,-0.999910,-0.000482,0.000800,-0.067152,-0.008503,-0.004235,0.005463,345.408051,349.870850,-1.000000,0.000000,0.000000
482148816.139213,0.008789,-0.008835,-1.064117,0.009302,0.009665,0.031513,0.999457,0.031596,-0.009302,-0.031507,0.999457,0.009665,0.009602,-0.009367,0.999910,0.009302,-0.009665,-0.999910,-0.000482,0.000800,-0.067152,-0.008503,-0.004235,0.005463,345.408051,349.870850,-1.000000,0.000000,0.000000
482148816.149827,0.010895,-0.014816,-1.061157,0.009302,0.009665,0.031513,0.999457,0.031596,-0.009302,-0.031507,0.999457,0.009665,0.009602,-0.009367,0.999910,0.009302,-0.009665,-0.999910,-0.000482,0.000800,-0.067152,-0.008503,-0.004235,0.005463,345.408051,349.870850,-1.000000,0.000000,0.000000
482148816.164533,0.010788,-0.009872,-1.064102,0.009302,0.009665,0.031513,0.999457,0.031596,-0.009302,-0.031507,0.999457,0.009665,0.009602,-0.009367,0.999910,0.009302,-0.009665,-0.999910,-0.000482,0.000800,-0.067152,-0.008503,-0.004235,0.005463,345.408051,349.870850,-1.000000,0.000000,0.000000
482148816.169588,0.010788,-0.009872,-1.064102,0.009302,0.009665,0.031513,0.999457,0.031596,-0.009302,-0.031507,0.999457,0.009665,0.009602,-0.009367,0.999910,0.009302,-0.009665,-0.999910,-0.000482,0.000800,-0.067152,-0.008503,-0.004235,0.005463,345.408051,349.870850,-1.000000,0.000000,0.000000
482148816.179798,0.013733,-0.009918,-1.061142,0.009302,0.009665,0.031513,0.999457,0.031596,-0.009302,-0.031507,0.999457,0.009665,0.009602,-0.009367,0.999910,0.009302,-0.009665,-0.999910,-0.000482,0.000800,-0.067152,-0.008503,-0.004235,0.005463,345.408051,349.870850,-1.000000,0.000000,0.000000
482148816.198116,0.010727,-0.007843,-1.060181,0.009302,0.009665,0.031513,0.999457,0.031596,-0.009302,-0.031507,0.999457,0.009665,0.009602,-0.009367,0.999910,0.009302,-0.009665,-0.999910,-0.000482,0.000800,-0.067152,-0.008503,-0.004235,0.005463,345.408051,349.870850,-1.000000,0.000000,0.000000
482148816.198858,0.010727,-0.007843,-1.060181,0.009302,0.009665,0.031513,0.999457,0.031596,-0.009302,-0.031507,0.999457,0.009665,0.009602,-0.009367,0.999910,0.009302,-0.009665,-0.999910,-0.000482,0.000800,-0.067152,-0.008503,-0.004235,0.005463,345.408051,349.870850,-1.000000,0.000000,0.000000
482148816.211567,0.010727,-0.007858,-1.062149,0.009302,0.009665,0.031513,0.999457,0.031596,-0.009302,-0.031507,0.999457,0.009665,0.009602,-0.009367,0.999910,0.009302,-0.009665,-0.999910,-0.000482,0.000800,-0.067152,-0.008503,-0.004235,0.005463,345.408051,349.870850,-1.000000,0.000000,0.000000
482148816.219430,0.012726,-0.008881,-1.059189,0.009302,0.009665,0.031513,0.999457,0.031596,-0.009302,-0.031507,0.999457,0.009665,0.009602,-0.009367,0.999910,0.009302,-0.009665,-0.999910,-0.000482,0.000800,-0.067152,-0.008503,-0.004235,0.005463,345.408051,349.870850,-1.000000,0.000000,0.000000
482148816.229712,0.010757,-0.008850,-1.062149,0.009302,0.009665,0.031513,0.999457,0.031596,-0.009302,-0.031507,0.999457,0.009665,0.009602,-0.009367,0.999910,0.009302,-0.009665,-0.999910,-0.000482,0.000800,-0.067152,-0.008503,-0.004235,0.005463,345.408051,349.870850,-1.000000,0.000000,0.000000
482148816.244917,0.010880,-0.012863,-1.065079,0.009302,0.009665,0.031513,0.999457,0.031596,-0.009302,-0.031507,0.999457,0.009665,0.009602,-0.009367,0.999910,0.009302,-0.009665,-0.999910,-0.000482,0.000800,-0.067152,-0.008503,-0.004235,0.005463,345.408051,349.870850,-1.000000,0.000000,0.000000
482148816.249567,0.007812,-0.010788,-1.062164,0.009302,0.009665,0.031513,0.999457,0.031596,-0.009302,-0.031507,0.999457,0.009665,0.009602,-0.009367,0.999910,0.009302,-0.009665,-0.999910,-0.000482,0.000800,-0.067152,-0.008503,-0.004235,0.005463,345.408051,349.870850,-1.000000,0.000000,0.000000
482148816.262852,0.009842,-0.012802,-1.060196,0.009302,0.009665,0.031513,0.999457,0.031596,-0.009302,-0.031507,0.999457,0.009665,0.009602,-0.009367,0.999910,0.009302,-0.009665,-0.999910,-0.000482,0.000800,-0.067152,-0.008503,-0.004235,0.005463,345.408051,349.870850,-1.000000,0.000000,0.000000
482148816.270855,0.009842,-0.012802,-1.060196,0.009302,0.009665,0.031513,0.999457,0.031596,-0.009302,-0.031507,0.999457,0.009665,0.009602,-0.009367,0.999910,0.009302,-0.009665,-0.999910,-0.000482,0.000800,-0.067152,-0.008503,-0.004235,0.005463,345.408051,349.870850,-1.000000,0.000000,0.000000
482148816.279611,0.007858,-0.010834,-1.068039,0.009302,0.009665,0.031513,0.999457,0.031596,-0.009302,-0.031507,0.999457,0.009665,0.009602,-0.009367,0.999910,0.009302,-0.009665,-0.999910,-0.000482,0.000800,-0.067152,-0.008503,-0.004235,0.005463,345.408051,349.870850,-1.000000,0.000000,0.000000
482148816.297086,0.014740,-0.008942,-1.063080,0.009302,0.009665,0.031513,0.999457,0.031596,-0.009302,-0.031507,0.999457,0.009665,0.009602,-0.009367,0.999910,0.009302,-0.009665,-0.999910,-0.000482,0.000800,-0.067152,-0.008503,-0.004235,0.005463,345.408051,349.870850,-1.000000,0.000000,0.000000
482148816.298973,0.006821,-0.008789,-1.064133,0.009302,0.009665,0.031513,0.999457,0.031596,-0.009302,-0.031507,0.999457,0.009665,0.009602,-0.009367,0.999910,0.009302,-0.009665,-0.999910,-0.000482,0.000800,-0.067152,-0.008503,-0.004235,0.005463,345.408051,349.870850,-1.000000,0.000000,0.000000
482148816.312668,0.009796,-0.010818,-1.062164,0.009302,0.009665,0.031513,0.999457,0.031596,-0.009302,-0.031507,0.999457,0.009665,0.009602,-0.009367,0.999910,0.009302,-0.009665,-0.999910,-0.000482,0.000800,-0.067152,-0.008503,-0.004235,0.005463,345.408051,349.870850,-1.000000,0.000000,0.000000
482148816.319754,0.007782,-0.009811,-1.062164,0.009302,0.009665,0.031513,0.999457,0.031596,-0.009302,-0.031507,0.999457,0.009665,0.009602,-0.009367,0.999910,0.009302,-0.009665,-0.999910,-0.000482,0.000800,-0.067152,-0.008503,-0.004235,0.005463,345.408051,349.870850,-1.000000,0.000000,0.000000
482148816.329849,0.007858,-0.010834,-1.067062,0.009302,0.009665,0.031513,0.999457,0.031596,-0.009302,-0.031507,0.999457,0.009665,0.009602,-0.009367,0.999910,0.009302,-0.009665,-0.999910,-0.000482,0.000800,-0.067152,-0.008503,-0.004235,0.005463,345.408051,349.870850,-1.000000,0.000000,0.000000
482148816.344263,0.011719,-0.007904,-1.064102,0.009302,0.009665,0.031513,0.999457,0.031596,-0.009302,-0.031507,0.999457,0.009665,0.009602,-0.009367,0.999910,0.009302,-0.009665,-0.999910,-0.000482,0.000800,-0.067152,-0.008503,-0.004235,0.005463,345.408051,349.870850,-1.000000,0.000000,0.000000
482148816.349645,0.007812,-0.010788,-1.062164,0.009302,0.009665,0.031513,0.999457,0.031596,-0.009302,-0.031507,0.999457,0.009665,0.009602,-0.009367,0.999910,0.009302,-0.009665,-0.999910,-0.000482,0.000800,-0.067152,-0.008503,-0.004235,0.005463,345.408051,349.870850,-1.000000,0.000000,0.000000
482148816.362251,0.005768,-0.006805,-1.064117,0.009302,0.009665,0.031513,0.999457,0.031596,-0.009302,-0.031507,0.999457,0.009665,0.009602,-0.009367,0.999910,0.009302,-0.009665,-0.999910,-0.000482,0.000800,-0.067152,-0.008503,-0.004235,0.005463,345.408051,349.870850,-1.000000,0.000000,0.000000
482148816.369821,0.011749,-0.008896,-1.063110,0.009302,0.009665,0.031513,0.999457,0.031596,-0.009302,-0.031507,0.999457,0.009665,0.009602,-0.009367,0.999910,0.009302,-0.009665,-0.999910,-0.000482,0.000800,-0.067152,-0.008503,-0.004235,0.005463,345.408051,349.870850,-1.000000,0.000000,0.000000
482148816.380329,0.007858,-0.011826,-1.065094,0.009302,0.009665,0.031513,0.999457,0.031596,-0.009302,-0.031507,0.999457,0.009665,0.009602,-0.009367,0.999910,0.009302,-0.009665,-0.999910,-0.000482,0.000800,-0.067152,-0.008503,-0.004235,0.005463,345.408051,349.870850,-1.000000,0.000000,0.000000
482148816.396324,0.007858,-0.011826,-1.065094,0.009302,0.009665,0.031513,0.999457,0.031596,-0.009302,-0.031507,0.999457,0.009665,0.009602,-0.009367,0.999910,0.009302,-0.009665,-0.999910,-0.000482,0.000800,-0.067152,-0.008503,-0.004235,0.005463,345.408051,349.870850,-1.000000,0.000000,0.000000
482148816.399041,0.015747,-0.009979,-1.063080,0.009302,0.009665,0.031513,0.999457,0.031596,-0.009302,-0.031507,0.999457,0.009665,0.009602,-0.009367,0.999910,0.009302,-0.009665,-0.999910,-0.000482,0.000800,-0.067152,-0.008503,-0.004235,0.005463,345.408051,349.870850,-1.000000,0.000000,0.000000
482148816.410120,0.008804,-0.009842,-1.064117,0.009302,0.009665,0.031513,0.999457,0.031596,-0.009302,-0.031507,0.999457,0.009665,0.009602,-0.009367,0.999910,0.009302,-0.009665,-0.999910,-0.000482,0.000800,-0.067152,-0.008503,-0.004235,0.005463,345.408051,349.870850,-1.000000,0.000000,0.000000
482148816.419955,0.008835,-0.010818,-1.064117,0.009302,0.009665,0.031513,0.999457,0.031596,-0.009302,-0.031507,0.999457,0.009665,0.009602,-0.009367,0.999910,0.009302,-0.009665,-0.999910,-0.000482,0.000800,-0.067152,-0.008503,-0.004235,0.005463,345.408051,349.870850,-1.000000,0.000000,0.000000
482148816.430062,0.014664,-0.006958,-1.062103,0.009302,0.009665,0.031513,0.999457,0.031596,-0.009302,-0.031507,0.999457,0.009665,0.009602,-0.009367,0.999910,0.009302,-0.009665,-0.999910,-0.000482,0.000800,-0.067152,-0.008503,-0.004235,0.005463,345.408051,349.870850,-1.000000,0.000000,0.000000
482148816.439626,0.005875,-0.011749,-1.062180,0.009302,0.009665,0.031513,0.999457,0.031596,-0.009302,-0.031507,0.999457,0.009665,0.009602,-0.009367,0.999910,0.009302,-0.009665,-0.999910,-0.000482,0.000800,-0.067152,-0.008503,-0.004235,0.005463,345.408051,349.870850,-1.000000,0.000000,0.000000
482148816.449729,0.010696,-0.006866,-1.060165,0.009302,0.009665,0.031513,0.999457,0.031596,-0.009302,-0.031507,0.999457,0.009665,0.009602,-0.009367,0.999910,0.009302,-0.009665,-0.999910,-0.000482,0.000800,-0.067152,-0.008503,-0.004235,0.005463,345.408051,349.870850,-1.000000,0.000000,0.000000
482148816.460073,0.010895,-0.013840,-1.063110,0.009302,0.009665,0.031513,0.999457,0.031596,-0.009302,-0.031507,0.999457,0.009665,0.009602,-0.009367,0.999910,0.009302,-0.009665,-0.999910,-0.000482,0.000800,-0.067152,-0.008503,-0.004235,0.005463,345.408051,349.870850,-1.000000,0.000000,0.000000
482148816.469976,0.006836,-0.009796,-1.064133,0.009302,0.009665,0.031513,0.999457,0.031596,-0.009302,-0.031507,0.999457,0.009665,0.009602,-0.009367,0.999910,0.009302,-0.009665,-0.999910,-0.000482,0.000800,-0.067152,-0.008503,-0.004235,0.005463,345.408051,349.870850,-1.000000,0.000000,0.000000
482148816.481689,0.013702,-0.007935,-1.064087,0.009302,0.009665,0.031513,0.999457,0.031596,-0.009302,-0.031507,0.999457,0.009665,0.009602,-0.009367,0.999910,0.009302,-0.009665,-0.999910,-0.000482,0.000800,-0.067152,-0.008503,-0.004235,0.005463,345.408051,349.870850,-1.000000,0.000000,0.000000
482148816.489734,0.013702,-0.007935,-1.064087,0.009302,0.009665,0.031513,0.999457,0.031596,-0.009302,-0.031507,0.999457,0.009665,0.009602,-0.009367,0.999910,0.009302,-0.009665,-0.999910,-0.000482,0.000800,-0.067152,-0.008503,-0.004235,0.005463,345.408051,349.870850,-1.000000,0.000000,0.000000
482148816.499851,0.010773,-0.010803,-1.056274,0.009302,0.009665,0.031513,0.999457,0.031596,-0.009302,-0.031507,0.999457,0.009665,0.009602,-0.009367,0.999910,0.009302,-0.009665,-0.999910,-0.000482,0.000800,-0.067152,-0.008503,-0.004235,0.005463,345.408051,349.870850,-1.000000,0.000000,0.000000
482148816.510132,0.007843,-0.010818,-1.066071,0.009302,0.009665,0.031513,0.999457,0.031596,-0.009302,-0.031507,0.999457,0.009665,0.009602,-0.009367,0.999910,0.009302,-0.009665,-0.999910,-0.000482,0.000800,-0.067152,-0.008503,-0.004235,0.005463,345.408051,349.870850,-1.000000,0.000000,0.000000
482148816.519959,0.010788,-0.008881,-1.065079,0.009302,0.009665,0.031513,0.999457,0.031596,-0.009302,-0.031507,0.999457,0.009665,0.009602,-0.009367,0.999910,0.009302,-0.009665,-0.999910,-0.000482,0.000800,-0.067152,-0.008503,-0.004235,0.005463,345.408051,349.870850,-1.000000,0.000000,0.000000
482148816.530054,0.007812,-0.009842,-1.065094,0.009302,0.009665,0.031513,0.999457,0.031596,-0.009302,-0.031507,0.999457,0.009665,0.009602,-0.009367,0.999910,0.009302,-0.009665,-0.999910,-0.000482,0.000800,-0.067152,-0.008503,-0.004235,0.005463,345.408051,349.870850,-1.000000,0.000000,0.000000
482148816.540222,0.010773,-0.009857,-1.062149,0.009302,0.009665,0.031513,0.999457,0.031596,-0.009302,-0.031507,0.999457,0.009665,0.009602,-0.009367,0.999910,0.009302,-0.009665,-0.999910,-0.000482,0.000800,-0.067152,-0.008503,-0.004235,0.005463,345.408051,349.870850,-1.000000,0.000000,0.000000
482148816.549768,0.009796,-0.010818,-1.061172,0.009302,0.009665,0.031513,0.999457,0.031596,-0.009302,-0.031507,0.999457,0.009665,0.009602,-0.009367,0.999910,0.009302,-0.009665,-0.999910,-0.000482,0.000800,-0.067152,-0.008503,-0.004235,0.005463,345.408051,349.870850,-1.000000,0.000000,0.000000
482148816.560453,0.008835,-0.010818,-1.064117,0.009302,0.009665,0.031513,0.999457,0.031596,-0.009302,-0.031507,0.999457,0.009665,0.009602,-0.009367,0.999910,0.009302,-0.009665,-0.999910,-0.000482,0.000800,-0.067152,-0.008503,-0.004235,0.005463,345.408051,349.870850,-1.000000,0.000000,0.000000
482148816.570059,0.013672,-0.006958,-1.064072,0.009302,0.009665,0.031513,0.999457,0.031596,-0.009302,-0.031507,0.999457,0.009665,0.009602,-0.009367,0.999910,0.009302,-0.009665,-0.999910,-0.000482,0.000800,-0.067152,-0.008503,-0.004235,0.005463,345.408051,349.870850,-1.000000,0.000000,0.000000
482148816.579976,0.010681,-0.005875,-1.060165,0.009302,0.009665,0.031513,0.999457,0.031596,-0.009302,-0.031507,0.999457,0.009665,0.009602,-0.009367,0.999910,0.009302,-0.009665,-0.999910,-0.000482,0.000800,-0.067152,-0.008503,-0.004235,0.005463,345.408051,349.870850,-1.000000,0.000000,0.000000
482148816.590233,0.010681,-0.005875,-1.060165,0.009302,0.009665,0.031513,0.999457,0.031596,-0.009302,-0.031507,0.999457,0.009665,0.009602,-0.009367,0.999910,0.009302,-0.009665,-0.999910,-0.000482,0.000800,-0.067152,-0.008503,-0.004235,0.005463,345.408051,349.870850,-1.000000,0.000000,0.000000
482148816.599993,0.009750,-0.008835,-1.062164,0.009302,0.009665,0.031513,0.999457,0.031596,-0.009302,-0.031507,0.999457,0.009665,0.009602,-0.009367,0.999910,0.009302,-0.009665,-0.999910,-0.000482,0.000800,-0.067152,-0.008503,-0.004235,0.005463,345.408051,349.870850,-1.000000,0.000000,0.000000
482148816.609881,0.012726,-0.007919,-1.064087,0.009302,0.009665,0.031513,0.999457,0.031596,-0.009302,-0.031507,0.999457,0.009665,0.009602,-0.009367,0.999910,0.009302,-0.009665,-0.999910,-0.000482,0.000800,-0.067152,-0.008503,-0.004235,0.005463,345.408051,349.870850,-1.000000,0.000000,0.000000
482148816.619760,0.005844,-0.009781,-1.064133,0.009302,0.009665,0.031513,0.999457,0.031596,-0.009302,-0.031507,0.999457,0.009665,0.009602,-0.009367,0.999910,0.009302,-0.009665,-0.999910,-0.000482,0.000800,-0.067152,-0.008503,-0.004235,0.005463,345.408051,349.870850,-1.000000,0.000000,0.000000
482148816.630227,0.010788,-0.008881,-1.066055,0.009302,0.009665,0.031513,0.999457,0.031596,-0.009302,-0.031507,0.999457,0.009665,0.009602,-0.009367,0.999910,0.009302,-0.009665,-0.999910,-0.000482,0.000800,-0.067152,-0.008503,-0.004235,0.005463,345.408051,349.870850,-1.000000,0.000000,0.000000
482148816.640052,0.009766,-0.009842,-1.062164,0.009302,0.009665,0.031513,0.999457,0.031596,-0.009302,-0.031507,0.999457,0.009665,0.009602,-0.009367,0.999910,0.009302,-0.009665,-0.999910,-0.000482,0.000800,-0.067152,-0.008503,-0.004235,0.005463,345.408051,349.870850,-1.000000,0.000000,0.000000
482148816.650034,0.010788,-0.009872,-1.064102,0.009302,0.009665,0.031513,0.999457,0.031596,-0.009302,-0.031507,0.999457,0.009665,0.009602,-0.009367,0.999910,0.009302,-0.009665,-0.999910,-0.000482,0.000800,-0.067152,-0.008503,-0.004235,0.005463,345.408051,349.870850,-1.000000,0.000000,0.000000
482148816.660132,0.009888,-0.013824,-1.064117,0.009302,0.009665,0.031513,0.999457,0.031596,-0.009302,-0.031507,0.999457,0.009665,0.009602,-0.009367,0.999910,0.009302,-0.009665,-0.999910,-0.000482,0.000800,-0.067152,-0.008503,-0.004235,0.005463,345.408051,349.870850,-1.000000,0.000000,0.000000
482148816.670048,0.013779,-0.011902,-1.062134,0.009302,0.009665,0.031513,0.999457,0.031596,-0.009302,-0.031507,0.999457,0.009665,0.009602,-0.009367,0.999910,0.009302,-0.009665,-0.999910,-0.000482,0.000800,-0.067152,-0.008503,-0.004235,0.005463,345.408051,349.870850,-1.000000,0.000000,0.000000
482148816.680371,0.008926,-0.013824,-1.065094,0.009302,0.009665,0.031513,0.999457,0.031596,-0.009302,-0.031507,0.999457,0.009665,0.009602,-0.009367,0.999910,0.009302,-0.009665,-0.999910,-0.000482,0.000800,-0.067152,-0.008503,-0.004235,0.005463,345.408051,349.870850,-1.000000,0.000000,0.000000
482148816.692961,0.012802,-0.010895,-1.064087,0.010895,0.010620,-0.000107,0.999941,0.000008,-0.010894,0.000107,0.999944,0.010620,0.010894,-0.010620,0.999884,0.010894,-0.010620,-0.999884,-0.001007,-0.003205,-0.064233,0.009855,-0.003088,-0.001894,345.408051,349.870850,-1.000000,0.000000,0.000000
482148816.699800,0.012802,-0.010895,-1.064087,0.010895,0.010620,-0.000107,0.999941,0.000008,-0.010894,0.000107,0.999944,0.010620,0.010894,-0.010620,0.999884,0.010894,-0.010620,-0.999884,-0.001007,-0.003205,-0.064233,0.009855,-0.003088,-0.001894,345.408051,349.870850,-1.000000,0.000000,0.000000
482148816.709875,0.008713,-0.006851,-1.061157,0.011097,0.010747,-0.000045,0.999938,0.000074,-0.011096,0.000045,0.999942,0.010747,0.011097,-0.010747,0.999881,0.011096,-0.010747,-0.999881,0.002682,-0.001155,-0.062253,0.002420,-0.001892,0.009153,345.408051,349.870850,-1.000000,0.000000,0.000000
482148816.719928,0.010773,-0.008865,-1.064102,0.010957,0.010917,-0.000087,0.999940,0.000032,-0.010956,0.000087,0.999940,0.010917,0.010956,-0.010917,0.999880,0.010956,-0.010917,-0.999880,0.001846,0.000022,-0.064207,0.003707,0.002600,-0.006837,345.408051,349.870850,-1.000000,0.000000,0.000000
482148816.730093,0.007828,-0.010803,-1.063126,0.010957,0.010917,-0.000087,0.999940,0.000032,-0.010956,0.000087,0.999940,0.010917,0.010956,-0.010917,0.999880,0.010956,-0.010917,-0.999880,0.001846,0.000022,-0.064207,0.003707,0.002600,-0.006837,345.408051,349.870850,-1.000000,0.000000,0.000000
482148816.740319,0.009750,-0.008835,-1.061172,0.010707,0.010618,-0.000134,0.999943,-0.000020,-0.010706,0.000134,0.999944,0.010618,0.010706,-0.010619,0.999886,0.010706,-0.010618,-0.999886,-0.001994,0.003767,-0.061271,0.007394,-0.006593,-0.004373,345.408051,349.870850,-1.000000,0.000000,0.000000
482148816.749878,0.009735,-0.007858,-1.063126,0.010488,0.010503,-0.000157,0.999945,-0.000047,-0.010487,0.000157,0.999945,0.010503,0.010486,-0.010504,0.999890,0.010487,-0.010503,-0.999890,-0.002659,-0.000300,-0.063236,0.002457,-0.000846,-0.003156,345.408051,349.870850,-1.000000,0.000000,0.000000
482148816.760176,0.010910,-0.013855,-1.066055,0.010488,0.010503,-0.000157,0.999945,-0.000047,-0.010487,0.000157,0.999945,0.010503,0.010486,-0.010504,0.999890,0.010487,-0.010503,-0.999890,-0.002659,-0.000300,-0.063236,0.002457,-0.000846,-0.003156,345.408051,349.870850,-1.000000,0.000000,0.000000
482148816.769959,0.008789,-0.009811,-1.060196,0.010407,0.010436,-0.000146,0.999946,-0.000037,-0.010406,0.000146,0.999946,0.010436,0.010405,-0.010437,0.999891,0.010406,-0.010436,-0.999891,-0.000656,0.001601,-0.061281,0.007372,0.001540,0.001795,345.408051,349.870850,-1.000000,0.000000,0.000000
482148816.780050,0.012756,-0.008911,-1.063095,0.010382,0.010396,-0.000153,0.999946,-0.000045,-0.010381,0.000153,0.999946,0.010396,0.010380,-0.010397,0.999892,0.010381,-0.010396,-0.999892,-0.000646,0.002538,-0.063234,0.013561,0.002674,-0.005561,345.408051,349.870850,-1.000000,0.000000,0.000000
482148816.790768,0.009720,-0.007843,-1.062164,0.010382,0.010396,-0.000153,0.999946,-0.000045,-0.010381,0.000153,0.999946,0.010396,0.010380,-0.010397,0.999892,0.010381,-0.010396,-0.999892,-0.000646,0.002538,-0.063234,0.013561,0.002674,-0.005561,345.408051,349.870850,-1.000000,0.000000,0.000000
482148816.799592,0.009720,-0.007843,-1.062164,0.010382,0.010578,-0.000154,0.999946,-0.000044,-0.010381,0.000154,0.999944,0.010578,0.010380,-0.010579,0.999890,0.010381,-0.010578,-0.999890,0.000529,-0.003277,-0.066165,0.003685,0.002635,-0.001913,345.408051,349.870850,-1.000000,0.000000,0.000000
482148816.810119,0.014725,-0.008926,-1.062119,0.010315,0.010574,-0.000151,0.999947,-0.000042,-0.010315,0.000151,0.999944,0.010573,0.010314,-0.010574,0.999891,0.010315,-0.010573,-0.999891,0.002442,0.001662,-0.063204,0.011056,-0.003023,0.005497,345.408051,349.870850,-1.000000,0.000000,0.000000
482148816.823698,0.010757,-0.008835,-1.060181,0.010259,0.010394,-0.000127,0.999947,-0.000020,-0.010258,0.000127,0.999946,0.010394,0.010258,-0.010394,0.999893,0.010258,-0.010394,-0.999893,-0.000538,0.002551,-0.062271,-0.003731,0.000292,0.000511,345.408051,349.870850,-1.000000,0.000000,0.000000
482148816.829579,0.010757,-0.008835,-1.060181,0.010259,0.010394,-0.000127,0.999947,-0.000020,-0.010258,0.000127,0.999946,0.010394,0.010258,-0.010394,0.999893,0.010258,-0.010394,-0.999893,-0.000538,0.002551,-0.062271,-0.003731,0.000292,0.000511,345.408051,349.870850,-1.000000,0.000000,0.000000
482148816.840110,0.009689,-0.005890,-1.064102,0.010194,0.010305,-0.000153,0.999948,-0.000048,-0.010193,0.000153,0.999947,0.010305,0.010192,-0.010306,0.999895,0.010193,-0.010305,-0.999895,-0.003372,0.001516,-0.063246,0.003690,-0.004348,-0.008079,345.408051,349.870850,-1.000000,0.000000,0.000000
482148816.851562,0.011795,-0.011871,-1.061157,0.010215,0.010443,-0.000191,0.999948,-0.000084,-0.010214,0.000191,0.999945,0.010442,0.010212,-0.010444,0.999893,0.010214,-0.010442,-0.999893,-0.003393,0.001653,-0.063248,0.014771,0.000402,-0.001867,345.408051,349.870850,-1.000000,0.000000,0.000000
482148816.859839,0.005798,-0.007782,-1.063141,0.010215,0.010443,-0.000191,0.999948,-0.000084,-0.010214,0.000191,0.999945,0.010442,0.010212,-0.010444,0.999893,0.010214,-0.010442,-0.999893,-0.003393,0.001653,-0.063248,0.014771,0.000402,-0.001867,345.408051,349.870850,-1.000000,0.000000,0.000000
482148816.870004,0.010788,-0.009872,-1.063110,0.010197,0.010107,-0.000192,0.999948,-0.000089,-0.010196,0.000192,0.999949,0.010107,0.010194,-0.010109,0.999897,0.010196,-0.010107,-0.999897,-0.000506,0.004217,-0.064205,-0.007431,0.000222,-0.004430,345.408051,349.870850,-1.000000,0.000000,0.000000
482148816.881072,0.006805,-0.008759,-1.060211,0.010199,0.010146,-0.000217,0.999948,-0.000113,-0.010198,0.000217,0.999949,0.010146,0.010196,-0.010148,0.999897,0.010198,-0.010146,-0.999897,0.001597,-0.001726,-0.061261,0.001190,-0.005458,-0.000707,345.408051,349.870850,-1.000000,0.000000,0.000000
482148816.890926,0.012680,-0.006927,-1.062119,0.010199,0.010146,-0.000217,0.999948,-0.000113,-0.010198,0.000217,0.999949,0.010146,0.010196,-0.010148,0.999897,0.010198,-0.010146,-0.999897,0.001597,-0.001726,-0.061261,0.001190,-0.005458,-0.000707,345.408051,349.870850,-1.000000,0.000000,0.000000
482148816.900822,0.009842,-0.012802,-1.060196,0.010034,0.010170,-0.000200,0.999950,-0.000098,-0.010033,0.000200,0.999948,0.010169,0.010032,-0.010171,0.999898,0.010033,-0.010169,-0.999898,0.000755,0.000297,-0.063212,0.014748,-0.000739,0.000593,345.408051,349.870850,-1.000000,0.000000,0.000000
482148816.909963,0.009842,-0.012802,-1.060196,0.009899,0.010155,-0.000181,0.999951,-0.000081,-0.009898,0.000181,0.999948,0.010154,0.009897,-0.010156,0.999899,0.009898,-0.010154,-0.999899,-0.003093,0.001396,-0.060312,0.003629,0.001527,0.005471,345.408051,349.870850,-1.000000,0.000000,0.000000
482148816.920154,0.011703,-0.007889,-1.061157,0.009899,0.010155,-0.000181,0.999951,-0.000081,-0.009898,0.000181,0.999948,0.010154,0.009897,-0.010156,0.999899,0.009898,-0.010154,-0.999899,-0.003093,0.001396,-0.060312,0.003629,0.001527,0.005471,345.408051,349.870850,-1.000000,0.000000,0.000000
482148816.930038,0.011719,-0.006958,-1.067032,0.009959,0.010138,-0.000203,0.999950,-0.000102,-0.009958,0.000203,0.999949,0.010138,0.009956,-0.010139,0.999899,0.009958,-0.010138,-0.999899,0.002722,0.003210,-0.062220,0.009813,0.000356,-0.001890,345.408051,349.870850,-1.000000,0.000000,0.000000
482148816.947960,0.006851,-0.011749,-1.059235,0.009915,0.010214,-0.000173,0.999951,-0.000072,-0.009914,0.000173,0.999948,0.010214,0.009913,-0.010215,0.999899,0.009914,-0.010214,-0.999899,-0.000072,-0.002588,-0.060297,-0.000079,-0.003106,0.006677,345.408051,349.870850,-1.000000,0.000000,0.000000
482148816.960112,0.011780,-0.008926,-1.068024,0.009885,0.010075,-0.000105,0.999951,-0.000005,-0.009884,0.000105,0.999949,0.010075,0.009884,-0.010076,0.999900,0.009884,-0.010075,-0.999900,0.001834,0.003117,-0.067131,0.013474,-0.006470,0.006734,345.408051,349.870850,-1.000000,0.000000,0.000000
482148816.970035,0.006653,-0.001862,-1.064117,0.009723,0.010180,-0.000057,0.999953,0.000042,-0.009722,0.000057,0.999948,0.010180,0.009722,-0.010180,0.999901,0.009722,-0.010180,-0.999901,-0.002871,-0.001569,-0.059334,0.007314,-0.003067,0.005480,345.408051,349.870850,-1.000000,0.000000,0.000000
482148816.979910,0.011734,-0.008881,-1.062149,0.009723,0.010180,-0.000057,0.999953,0.000042,-0.009722,0.000057,0.999948,0.010180,0.009722,-0.010180,0.999901,0.009722,-0.010180,-0.999901,-0.002871,-0.001569,-0.059334,0.007314,-0.003067,0.005480,345.408051,349.870850,-1.000000,0.000000,0.000000
482148816.990853,0.011734,-0.008881,-1.062149,0.009747,0.010065,-0.000011,0.999952,0.000088,-0.009746,0.000011,0.999949,0.010065,0.009747,-0.010065,0.999902,0.009746,-0.010065,-0.999902,0.002033,0.001139,-0.068122,-0.001310,0.003758,0.000527,345.408051,349.870850,-1.000000,0.000000,0.000000
482148817.001576,0.009781,-0.011795,-1.057251,0.009655,0.009783,0.000032,0.999953,0.000126,-0.009655,-0.000032,0.999952,0.009783,0.009656,-0.009782,0.999906,0.009655,-0.009783,-0.999906,-0.003002,0.007921,-0.064212,-0.005029,0.001414,0.000507,345.408051,349.870850,-1.000000,0.000000,0.000000
482148817.012947,0.005859,-0.010727,-1.060211,0.009655,0.009783,0.000032,0.999953,0.000126,-0.009655,-0.000032,0.999952,0.009783,0.009656,-0.009782,0.999906,0.009655,-0.009783,-0.999906,-0.003002,0.007921,-0.064212,-0.005029,0.001414,0.000507,345.408051,349.870850,-1.000000,0.000000,0.000000
482148817.019706,0.006821,-0.009766,-1.060211,0.009638,0.009766,-0.000037,0.999954,0.000058,-0.009637,0.000037,0.999952,0.009766,0.009637,-0.009766,0.999906,0.009637,-0.009766,-0.999906,0.002097,0.000885,-0.062243,0.004811,-0.007698,0.006692,345.408051,349.870850,-1.000000,0.000000,0.000000
482148817.029427,0.003937,-0.012726,-1.064148,0.009634,0.009838,-0.000013,0.999954,0.000081,-0.009634,0.000013,0.999952,0.009838,0.009634,-0.009838,0.999905,0.009634,-0.009838,-0.999905,0.000147,-0.001957,-0.057346,0.001133,0.003781,0.001769,345.408051,349.870850,-1.000000,0.000000,0.000000
482148817.040912,0.008804,-0.008850,-1.065094,0.009419,0.009821,0.000083,0.999956,0.000175,-0.009419,-0.000083,0.999952,0.009821,0.009420,-0.009819,0.999907,0.009419,-0.009821,-0.999907,-0.002598,0.000055,-0.060304,-0.000106,-0.002010,0.002985,345.408051,349.870850,-1.000000,0.000000,0.000000
482148817.050030,0.007767,-0.008789,-1.060196,0.009419,0.009821,0.000083,0.999956,0.000175,-0.009419,-0.000083,0.999952,0.009821,0.009420,-0.009819,0.999907,0.009419,-0.009821,-0.999907,-0.002598,0.000055,-0.060304,-0.000106,-0.002010,0.002985,345.408051,349.870850,-1.000000,0.000000,0.000000
482148817.059951,0.008698,-0.005859,-1.062149,0.009266,0.009883,0.000143,0.999957,0.000235,-0.009265,-0.000143,0.999951,0.009883,0.009267,-0.009881,0.999908,0.009265,-0.009883,-0.999908,-0.005328,-0.002843,-0.064240,-0.000111,0.002625,0.006686,345.408051,349.870850,-1.000000,0.000000,0.000000
482148817.070872,0.011765,-0.009903,-1.064102,0.009231,0.009821,0.000232,0.999957,0.000323,-0.009230,-0.000232,0.999952,0.009821,0.009233,-0.009819,0.999909,0.009230,-0.009821,-0.999909,-0.001463,0.001032,-0.060287,0.001137,0.002563,-0.000694,345.408051,349.870850,-1.000000,0.000000,0.000000
482148817.081246,0.007782,-0.008820,-1.063126,0.009231,0.009821,0.000232,0.999957,0.000323,-0.009230,-0.000232,0.999952,0.009821,0.009233,-0.009819,0.999909,0.009230,-0.009821,-0.999909,-0.001463,0.001032,-0.060287,0.001137,0.002563,-0.000694,345.408051,349.870850,-1.000000,0.000000,0.000000
482148817.089610,0.007767,-0.008804,-1.062164,0.009215,0.009707,0.000244,0.999958,0.000333,-0.009214,-0.000244,0.999953,0.009707,0.009217,-0.009704,0.999910,0.009214,-0.009707,-0.999910,-0.000517,0.003847,-0.062239,0.001124,-0.003214,-0.000704,345.408051,349.870850,-1.000000,0.000000,0.000000
482148817.100218,0.011749,-0.009872,-1.060181,0.009371,0.009687,0.000206,0.999956,0.000297,-0.009371,-0.000206,0.999953,0.009687,0.009373,-0.009685,0.999909,0.009371,-0.009687,-0.999909,0.002394,-0.000216,-0.064193,-0.000091,0.010597,-0.005612,345.408051,349.870850,-1.000000,0.000000,0.000000
482148817.109984,0.011749,-0.009872,-1.060181,0.009371,0.009687,0.000206,0.999956,0.000297,-0.009371,-0.000206,0.999953,0.009687,0.009373,-0.009685,0.999909,0.009371,-0.009687,-0.999909,0.002394,-0.000216,-0.064193,-0.000091,0.010597,-0.005612,345.408051,349.870850,-1.000000,0.000000,0.000000
482148817.119461,0.008835,-0.010818,-1.064117,0.009318,0.009660,0.000170,0.999957,0.000260,-0.009317,-0.000170,0.999953,0.009660,0.009319,-0.009658,0.999910,0.009317,-0.009660,-0.999910,-0.001535,0.000840,-0.063216,0.002364,-0.000928,-0.004388,345.408051,349.870850,-1.000000,0.000000,0.000000
482148817.130431,0.008698,-0.005844,-1.060181,0.009412,0.009612,0.000180,0.999956,0.000270,-0.009411,-0.000180,0.999954,0.009612,0.009413,-0.009610,0.999910,0.009411,-0.009612,-0.999910,0.002338,-0.000260,-0.060271,-0.003825,0.009473,0.001756,345.408051,349.870850,-1.000000,0.000000,0.000000
482148817.139734,0.009903,-0.014816,-1.064117,0.009412,0.009612,0.000180,0.999956,0.000270,-0.009411,-0.000180,0.999954,0.009612,0.009413,-0.009610,0.999910,0.009411,-0.009612,-0.999910,0.002338,-0.000260,-0.060271,-0.003825,0.009473,0.001756,345.408051,349.870850,-1.000000,0.000000,0.000000
482148817.149750,0.010727,-0.006912,-1.066040,0.009406,0.009590,0.000168,0.999956,0.000258,-0.009406,-0.000168,0.999954,0.009590,0.009408,-0.009588,0.999910,0.009406,-0.009590,-0.999910,-0.000571,-0.001229,-0.064208,-0.003813,0.001354,-0.001950,345.408051,349.870850,-1.000000,0.000000,0.000000
482148817.160068,0.008896,-0.013794,-1.062164,0.009361,0.009416,0.000101,0.999956,0.000189,-0.009361,-0.000101,0.999956,0.009416,0.009362,-0.009414,0.999912,0.009361,-0.009416,-0.999912,-0.000663,0.003572,-0.060269,-0.005069,-0.006721,0.000494,345.408051,349.870850,-1.000000,0.000000,0.000000
482148817.171668,0.007782,-0.009811,-1.062164,0.009385,0.009544,0.000088,0.999956,0.000177,-0.009384,-0.000088,0.999954,0.009544,0.009386,-0.009543,0.999910,0.009384,-0.009544,-0.999910,0.000519,-0.005272,-0.064207,0.003577,0.003744,0.001781,345.408051,349.870850,-1.000000,0.000000,0.000000
482148817.179817,0.005875,-0.010757,-1.064133,0.009385,0.009544,0.000088,0.999956,0.000177,-0.009384,-0.000088,0.999954,0.009544,0.009386,-0.009543,0.999910,0.009384,-0.009544,-0.999910,0.000519,-0.005272,-0.064207,0.003577,0.003744,0.001781,345.408051,349.870850,-1.000000,0.000000,0.000000
482148817.190237,0.016708,-0.008957,-1.060135,0.009431,0.009618,0.000092,0.999956,0.000183,-0.009430,-0.000092,0.999954,0.009618,0.009431,-0.009617,0.999909,0.009430,-0.009618,-0.999909,-0.000534,-0.004176,-0.062255,0.007266,-0.000819,0.005483,345.408051,349.870850,-1.000000,0.000000,0.000000
482148817.199223,0.016708,-0.008957,-1.060135,0.009431,0.009618,0.000092,0.999956,0.000183,-0.009430,-0.000092,0.999954,0.009618,0.009431,-0.009617,0.999909,0.009430,-0.009618,-0.999909,-0.000534,-0.004176,-0.062255,0.007266,-0.000819,0.005483,345.408051,349.870850,-1.000000,0.000000,0.000000
482148817.212449,0.010818,-0.009903,-1.067047,0.009363,0.009631,0.000068,0.999956,0.000158,-0.009363,-0.000068,0.999954,0.009631,0.009364,-0.009630,0.999910,0.009363,-0.009631,-0.999910,-0.001581,-0.000180,-0.062255,-0.000115,0.000224,-0.000704,345.408051,349.870850,-1.000000,0.000000,0.000000
482148817.219570,0.014877,-0.014908,-1.063080,0.009449,0.009659,0.000119,0.999955,0.000210,-0.009448,-0.000119,0.999953,0.009659,0.009450,-0.009657,0.999909,0.009448,-0.009659,-0.999909,0.007260,0.000702,-0.060226,0.003570,-0.002019,0.003002,345.408051,349.870850,-1.000000,0.000000,0.000000
482148817.230578,0.007736,-0.007812,-1.062164,0.009441,0.009631,0.000160,0.999955,0.000251,-0.009440,-0.000160,0.999954,0.009631,0.009442,-0.009629,0.999909,0.009440,-0.009631,-0.999909,0.001378,-0.000272,-0.067138,-0.002606,0.000270,0.005440,345.408051,349.870850,-1.000000,0.000000,0.000000
482148817.240031,0.009659,-0.005859,-1.059204,0.009441,0.009631,0.000160,0.999955,0.000251,-0.009440,-0.000160,0.999954,0.009631,0.009442,-0.009629,0.999909,0.009440,-0.009631,-0.999909,0.001378,-0.000272,-0.067138,-0.002606,0.000270,0.005440,345.408051,349.870850,-1.000000,0.000000,0.000000
482148817.249975,0.012772,-0.009918,-1.064087,0.009513,0.009737,0.000151,0.999955,0.000244,-0.009512,-0.000151,0.999953,0.009737,0.009514,-0.009735,0.999907,0.009512,-0.009737,-0.999907,0.005365,-0.005171,-0.063172,0.002366,-0.005514,-0.001933,345.408051,349.870850,-1.000000,0.000000,0.000000
482148817.260311,0.012787,-0.009933,-1.065063,0.009433,0.009684,0.000139,0.999955,0.000230,-0.009432,-0.000139,0.999953,0.009684,0.009434,-0.009682,0.999909,0.009432,-0.009684,-0.999909,-0.001696,0.001871,-0.062256,-0.002579,-0.003238,-0.000721,345.408051,349.870850,-1.000000,0.000000,0.000000
482148817.270170,0.010666,-0.003937,-1.065063,0.009433,0.009684,0.000139,0.999955,0.000230,-0.009432,-0.000139,0.999953,0.009684,0.009434,-0.009682,0.999909,0.009432,-0.009684,-0.999909,-0.001696,0.001871,-0.062256,-0.002579,-0.003238,-0.000721,345.408051,349.870850,-1.000000,0.000000,0.000000
482148817.279746,0.011826,-0.011902,-1.066055,0.009530,0.009604,0.000154,0.999955,0.000246,-0.009530,-0.000154,0.999954,0.009604,0.009532,-0.009602,0.999908,0.009530,-0.009604,-0.999908,0.003242,-0.000314,-0.064178,-0.003840,0.002567,0.002975,345.408051,349.870850,-1.000000,0.000000,0.000000
482148817.291362,0.007828,-0.010803,-1.064117,0.009653,0.009585,0.000183,0.999953,0.000276,-0.009652,-0.000183,0.999954,0.009585,0.009655,-0.009583,0.999907,0.009652,-0.009585,-0.999907,0.003134,-0.000349,-0.065156,-0.000149,0.002623,0.005454,345.408051,349.870850,-1.000000,0.000000,0.000000
482148817.299718,0.007828,-0.010803,-1.064117,0.009653,0.009585,0.000183,0.999953,0.000276,-0.009652,-0.000183,0.999954,0.009585,0.009655,-0.009583,0.999907,0.009652,-0.009585,-0.999907,0.003134,-0.000349,-0.065156,-0.000149,0.002623,0.005454,345.408051,349.870850,-1.000000,0.000000,0.000000
482148817.309777,0.014725,-0.008926,-1.061127,0.009657,0.009523,0.000139,0.999953,0.000231,-0.009657,-0.000139,0.999955,0.009523,0.009659,-0.009521,0.999908,0.009657,-0.009523,-0.999908,0.002169,-0.002379,-0.066147,0.001095,-0.000898,-0.003163,345.408051,349.870850,-1.000000,0.000000,0.000000
482148817.319994,0.009689,-0.006851,-1.060181,0.009627,0.009545,0.000102,0.999954,0.000194,-0.009626,-0.000102,0.999954,0.009545,0.009627,-0.009544,0.999908,0.009626,-0.009545,-0.999908,0.002200,-0.002357,-0.066147,0.003557,-0.003179,-0.001925,345.408051,349.870850,-1.000000,0.000000,0.000000
482148817.329961,0.011749,-0.008896,-1.063110,0.009627,0.009545,0.000102,0.999954,0.000194,-0.009626,-0.000102,0.999954,0.009545,0.009627,-0.009544,0.999908,0.009626,-0.009545,-0.999908,0.002200,-0.002357,-0.066147,0.003557,-0.003179,-0.001925,345.408051,349.870850,-1.000000,0.000000,0.000000
482148817.339781,0.008865,-0.012802,-1.062164,0.009691,0.009607,0.000111,0.999953,0.000204,-0.009691,-0.000111,0.999954,0.009607,0.009692,-0.009605,0.999907,0.009691,-0.009607,-0.999907,0.005034,0.000681,-0.061220,0.002319,0.001450,-0.000692,345.408051,349.870850,-1.000000,0.000000,0.000000
482148817.349901,0.010773,-0.008865,-1.064102,0.009709,0.009526,0.000105,0.999953,0.000197,-0.009708,-0.000105,0.999955,0.009526,0.009710,-0.009524,0.999907,0.009708,-0.009526,-0.999907,-0.000019,0.002675,-0.060273,0.001089,0.003706,-0.005618,345.408051,349.870850,-1.000000,0.000000,0.000000
482148817.361274,0.007721,-0.006851,-1.064102,0.009709,0.009526,0.000105,0.999953,0.000197,-0.009708,-0.000105,0.999955,0.009526,0.009710,-0.009524,0.999907,0.009708,-0.009526,-0.999907,-0.000019,0.002675,-0.060273,0.001089,0.003706,-0.005618,345.408051,349.870850,-1.000000,0.000000,0.000000
482148817.369889,0.012787,-0.008942,-1.067032,0.009764,0.009578,0.000061,0.999952,0.000154,-0.009763,-0.000061,0.999954,0.009578,0.009764,-0.009577,0.999906,0.009763,-0.009578,-0.999906,-0.000898,-0.003224,-0.062258,0.001098,0.000231,-0.006855,345.408051,349.870850,-1.000000,0.000000,0.000000
482148817.380015,0.006882,-0.011780,-1.064133,0.009764,0.009548,0.000090,0.999952,0.000183,-0.009763,-0.000090,0.999954,0.009548,0.009764,-0.009547,0.999907,0.009763,-0.009548,-0.999907,0.001010,0.000683,-0.064195,0.001048,-0.000807,0.006685,345.408051,349.870850,-1.000000,0.000000,0.000000
482148817.390877,0.012756,-0.009903,-1.061142,0.009764,0.009548,0.000090,0.999952,0.000183,-0.009763,-0.000090,0.999954,0.009548,0.009764,-0.009547,0.999907,0.009763,-0.009548,-0.999907,0.001010,0.000683,-0.064195,0.001048,-0.000807,0.006685,345.408051,349.870850,-1.000000,0.000000,0.000000
482148817.400401,0.004822,-0.008743,-1.062195,0.009747,0.009424,0.000082,0.999952,0.000174,-0.009746,-0.000082,0.999956,0.009424,0.009747,-0.009422,0.999908,0.009746,-0.009424,-0.999908,0.003041,0.000482,-0.067124,-0.006329,0.000189,-0.005658,345.408051,349.870850,-1.000000,0.000000,0.000000
482148817.410706,0.004822,-0.008743,-1.062195,0.009772,0.009440,0.000099,0.999952,0.000192,-0.009771,-0.000099,0.999955,0.009440,0.009773,-0.009439,0.999908,0.009771,-0.009440,-0.999908,0.003015,0.000498,-0.067124,0.004739,0.002661,0.004245,345.408051,349.870850,-1.000000,0.000000,0.000000
482148817.421698,0.007828,-0.010803,-1.063126,0.009777,0.009595,0.000103,0.999952,0.000197,-0.009776,-0.000103,0.999954,0.009595,0.009778,-0.009593,0.999906,0.009776,-0.009595,-0.999906,0.002980,-0.000308,-0.061236,0.003519,-0.001991,0.001770,345.408051,349.870850,-1.000000,0.000000,0.000000
482148817.429631,0.007828,-0.010803,-1.063126,0.009777,0.009595,0.000103,0.999952,0.000197,-0.009776,-0.000103,0.999954,0.009595,0.009778,-0.009593,0.999906,0.009776,-0.009595,-0.999906,0.002980,-0.000308,-0.061236,0.003519,-0.001991,0.001770,345.408051,349.870850,-1.000000,0.000000,0.000000
482148817.440117,0.008804,-0.009842,-1.063126,0.009616,0.009581,0.000121,0.999954,0.000213,-0.009616,-0.000121,0.999954,0.009580,0.009617,-0.009579,0.999908,0.009616,-0.009580,-0.999908,-0.004794,0.000837,-0.062287,0.004763,-0.000893,-0.003147,345.408051,349.870850,-1.000000,0.000000,0.000000
482148817.449365,0.013763,-0.008957,-1.067032,0.009567,0.009684,0.000102,0.999954,0.000194,-0.009567,-0.000102,0.999953,0.009684,0.009568,-0.009682,0.999907,0.009567,-0.009684,-0.999907,-0.001739,-0.001120,-0.063218,0.001076,-0.000937,-0.004395,345.408051,349.870850,-1.000000,0.000000,0.000000
482148817.460686,0.010849,-0.012833,-1.062149,0.009567,0.009684,0.000102,0.999954,0.000194,-0.009567,-0.000102,0.999953,0.009684,0.009568,-0.009682,0.999907,0.009567,-0.009684,-0.999907,-0.001739,-0.001120,-0.063218,0.001076,-0.000937,-0.004395,345.408051,349.870850,-1.000000,0.000000,0.000000
482148817.469729,0.006775,-0.006836,-1.066071,0.009524,0.009707,0.000047,0.999955,0.000139,-0.009524,-0.000047,0.999953,0.009707,0.009525,-0.009706,0.999908,0.009524,-0.009707,-0.999908,-0.000719,-0.000135,-0.063218,-0.000151,-0.000972,-0.006863,345.408051,349.870850,-1.000000,0.000000,0.000000
482148817.480049,0.010818,-0.010849,-1.064102,0.009571,0.009734,-0.000016,0.999954,0.000077,-0.009570,0.000016,0.999953,0.009734,0.009571,-0.009733,0.999907,0.009570,-0.009734,-0.999907,0.004193,0.000777,-0.067125,0.003534,-0.003219,-0.004387,345.408051,349.870850,-1.000000,0.000000,0.000000
482148817.492589,0.007812,-0.008850,-1.067062,0.009571,0.009734,-0.000016,0.999954,0.000077,-0.009570,0.000016,0.999953,0.009734,0.009571,-0.009733,0.999907,0.009570,-0.009734,-0.999907,0.004193,0.000777,-0.067125,0.003534,-0.003219,-0.004387,345.408051,349.870850,-1.000000,0.000000,0.000000
482148817.500012,0.011795,-0.011871,-1.062149,0.009543,0.009833,0.000025,0.999954,0.000119,-0.009543,-0.000025,0.999952,0.009833,0.009543,-0.009833,0.999906,0.009543,-0.009833,-0.999906,0.001306,-0.002999,-0.062243,0.005979,-0.004270,0.005471,345.408051,349.870850,-1.000000,0.000000,0.000000
482148817.510240,0.006836,-0.009796,-1.064133,0.009465,0.009799,0.000018,0.999955,0.000110,-0.009465,-0.000018,0.999952,0.009799,0.009465,-0.009798,0.999907,0.009465,-0.009799,-0.999907,0.001354,-0.001050,-0.064195,0.004753,0.000276,-0.000683,345.408051,349.870850,-1.000000,0.000000,0.000000
482148817.519868,0.006836,-0.009796,-1.064133,0.009465,0.009799,0.000018,0.999955,0.000110,-0.009465,-0.000018,0.999952,0.009799,0.009465,-0.009798,0.999907,0.009465,-0.009799,-0.999907,0.001354,-0.001050,-0.064195,0.004753,0.000276,-0.000683,345.408051,349.870850,-1.000000,0.000000,0.000000
482148817.529882,0.009811,-0.011826,-1.061172,0.009447,0.009793,0.000047,0.999955,0.000139,-0.009447,-0.000047,0.999952,0.009793,0.009448,-0.009792,0.999907,0.009447,-0.009793,-0.999907,-0.001634,0.000943,-0.067155,0.001042,0.002560,0.000535,345.408051,349.870850,-1.000000,0.000000,0.000000
482148817.540159,0.008759,-0.007843,-1.063126,0.009421,0.009895,0.000075,0.999956,0.000168,-0.009421,-0.000075,0.999951,0.009895,0.009422,-0.009893,0.999907,0.009421,-0.009895,-0.999907,-0.002585,0.000098,-0.064226,0.003504,0.001437,0.003006,345.408051,349.870850,-1.000000,0.000000,0.000000
482148817.551438,0.010849,-0.012833,-1.062149,0.009421,0.009895,0.000075,0.999956,0.000168,-0.009421,-0.000075,0.999951,0.009895,0.009422,-0.009893,0.999907,0.009421,-0.009895,-0.999907,-0.002585,0.000098,-0.064226,0.003504,0.001437,0.003006,345.408051,349.870850,-1.000000,0.000000,0.000000
482148817.559783,0.003784,-0.006775,-1.064133,0.009431,0.009956,0.000068,0.999956,0.000162,-0.009431,-0.000068,0.999950,0.009956,0.009432,-0.009955,0.999906,0.009431,-0.009956,-0.999906,0.000381,-0.001870,-0.061267,0.002305,0.002509,-0.005615,345.408051,349.870850,-1.000000,0.000000,0.000000
482148817.570031,0.013763,-0.011887,-1.059189,0.009460,0.009896,0.000180,0.999955,0.000274,-0.009459,-0.000180,0.999951,0.009896,0.009461,-0.009894,0.999906,0.009459,-0.009896,-0.999906,-0.000700,0.002053,-0.063219,0.002255,-0.003176,0.005455,345.408051,349.870850,-1.000000,0.000000,0.000000
482148817.580333,0.005798,-0.007782,-1.064133,0.009467,0.009925,0.000180,0.999955,0.000273,-0.009467,-0.000180,0.999951,0.009924,0.009469,-0.009922,0.999906,0.009467,-0.009924,-0.999906,0.001382,-0.002908,-0.062243,-0.001413,0.001368,-0.000709,345.408051,349.870850,-1.000000,0.000000,0.000000
482148817.590180,0.009781,-0.009857,-1.064117,0.009467,0.009925,0.000180,0.999955,0.000273,-0.009467,-0.000180,0.999951,0.009924,0.009469,-0.009922,0.999906,0.009467,-0.009924,-0.999906,0.001382,-0.002908,-0.062243,-0.001413,0.001368,-0.000709,345.408051,349.870850,-1.000000,0.000000,0.000000
482148817.600020,0.009857,-0.012833,-1.064117,0.009460,0.009931,0.000190,0.999955,0.000284,-0.009460,-0.000190,0.999951,0.009931,0.009462,-0.009929,0.999906,0.009460,-0.009931,-0.999906,0.004304,-0.001955,-0.059283,-0.002682,-0.002054,0.006666,345.408051,349.870850,-1.000000,0.000000,0.000000
482148817.611123,0.010818,-0.010849,-1.064102,0.009301,0.009901,0.000190,0.999957,0.000282,-0.009301,-0.000190,0.999951,0.009901,0.009303,-0.009899,0.999908,0.009301,-0.009901,-0.999908,-0.003502,0.002119,-0.064225,0.004731,-0.006713,-0.001925,345.408051,349.870850,-1.000000,0.000000,0.000000
482148817.620715,0.010818,-0.010849,-1.064102,0.009301,0.009901,0.000190,0.999957,0.000282,-0.009301,-0.000190,0.999951,0.009901,0.009303,-0.009899,0.999908,0.009301,-0.009901,-0.999908,-0.003502,0.002119,-0.064225,0.004731,-0.006713,-0.001925,345.408051,349.870850,-1.000000,0.000000,0.000000
482148817.630578,0.007721,-0.006851,-1.064102,0.009314,0.009955,0.000212,0.999957,0.000305,-0.009313,-0.000212,0.999950,0.009955,0.009316,-0.009953,0.999907,0.009313,-0.009955,-0.999907,0.000544,-0.002878,-0.064210,0.004725,0.002566,0.003014,345.408051,349.870850,-1.000000,0.000000,0.000000
482148817.640100,0.011917,-0.014893,-1.067047,0.009333,0.010049,0.000229,0.999956,0.000322,-0.009333,-0.000229,0.999949,0.010049,0.009335,-0.010047,0.999906,0.009333,-0.010049,-0.999906,0.000525,-0.002783,-0.064211,0.009662,0.001437,0.001803,345.408051,349.870850,-1.000000,0.000000,0.000000
482148817.650064,0.011673,-0.006912,-1.061142,0.009333,0.010049,0.000229,0.999956,0.000322,-0.009333,-0.000229,0.999949,0.010049,0.009335,-0.010047,0.999906,0.009333,-0.010049,-0.999906,0.000525,-0.002783,-0.064211,0.009662,0.001437,0.001803,345.408051,349.870850,-1.000000,0.000000,0.000000
482148817.659758,0.009735,-0.007858,-1.064117,0.009265,0.010082,0.000233,0.999957,0.000326,-0.009265,-0.000233,0.999949,0.010082,0.009267,-0.010079,0.999906,0.009265,-0.010082,-0.999906,-0.001544,0.003231,-0.064196,0.009656,-0.002066,-0.001896,345.408051,349.870850,-1.000000,0.000000,0.000000
482148817.671462,0.008820,-0.009857,-1.066071,0.009320,0.010183,0.000219,0.999957,0.000314,-0.009320,-0.000219,0.999948,0.010183,0.009322,-0.010180,0.999905,0.009320,-0.010183,-0.999905,0.002597,-0.004710,-0.067142,0.002277,0.002510,-0.001922,345.408051,349.870850,-1.000000,0.000000,0.000000
482148817.682807,0.007767,-0.008789,-1.060196,0.009385,0.010123,0.000211,0.999956,0.000306,-0.009385,-0.000211,0.999949,0.010122,0.009387,-0.010120,0.999905,0.009385,-0.010122,-0.999905,0.000350,0.002264,-0.064213,0.002225,0.002570,0.004233,345.408051,349.870850,-1.000000,0.000000,0.000000
482148817.689690,0.007736,-0.007797,-1.060196,0.009385,0.010123,0.000211,0.999956,0.000306,-0.009385,-0.000211,0.999949,0.010122,0.009387,-0.010120,0.999905,0.009385,-0.010122,-0.999905,0.000350,0.002264,-0.064213,0.002225,0.002570,0.004233,345.408051,349.870850,-1.000000,0.000000,0.000000
482148817.700064,0.007797,-0.008835,-1.066071,0.009401,0.010113,0.000312,0.999956,0.000407,-0.009401,-0.000312,0.999949,0.010113,0.009404,-0.010110,0.999905,0.009401,-0.010113,-0.999905,-0.000581,0.000256,-0.066166,-0.001496,0.002580,0.009140,345.408051,349.870850,-1.000000,0.000000,0.000000
482148817.711599,0.011673,-0.005936,-1.063095,0.009248,0.009981,0.000413,0.999957,0.000505,-0.009248,-0.000413,0.999950,0.009981,0.009252,-0.009977,0.999907,0.009248,-0.009981,-0.999907,-0.001512,0.002184,-0.060289,-0.001496,-0.004432,0.001743,345.408051,349.870850,-1.000000,0.000000,0.000000
482148817.720146,0.006760,-0.008728,-1.055313,0.009248,0.009981,0.000413,0.999957,0.000505,-0.009248,-0.000413,0.999950,0.009981,0.009252,-0.009977,0.999907,0.009248,-0.009981,-0.999907,-0.001512,0.002184,-0.060289,-0.001496,-0.004432,0.001743,345.408051,349.870850,-1.000000,0.000000,0.000000
482148817.729495,0.006760,-0.008728,-1.055313,0.009267,0.009955,0.000418,0.999957,0.000511,-0.009266,-0.000418,0.999950,0.009955,0.009271,-0.009951,0.999907,0.009266,-0.009955,-0.999907,-0.001530,0.002158,-0.060288,-0.000238,0.000133,-0.005630,345.408051,349.870850,-1.000000,0.000000,0.000000
482148817.742002,0.012650,-0.005920,-1.059174,0.009287,0.009830,0.000453,0.999957,0.000544,-0.009287,-0.000453,0.999952,0.009830,0.009292,-0.009825,0.999909,0.009287,-0.009830,-0.999909,0.002386,0.003894,-0.063187,-0.000273,-0.002167,-0.004404,345.408051,349.870850,-1.000000,0.000000,0.000000
482148817.749857,0.012650,-0.005920,-1.059174,0.009287,0.009830,0.000453,0.999957,0.000544,-0.009287,-0.000453,0.999952,0.009830,0.009292,-0.009825,0.999909,0.009287,-0.009830,-0.999909,0.002386,0.003894,-0.063187,-0.000273,-0.002167,-0.004404,345.408051,349.870850,-1.000000,0.000000,0.000000
482148817.760038,0.010727,-0.008820,-1.056274,0.009209,0.009775,0.000392,0.999958,0.000482,-0.009209,-0.000392,0.999952,0.009775,0.009213,-0.009771,0.999910,0.009209,-0.009775,-0.999910,-0.002449,0.001047,-0.055403,-0.001506,0.000098,-0.006867,345.408051,349.870850,-1.000000,0.000000,0.000000
482148817.770335,0.010712,-0.006897,-1.063095,0.009269,0.009661,0.000361,0.999957,0.000450,-0.009269,-0.000361,0.999953,0.009661,0.009272,-0.009657,0.999910,0.009269,-0.009661,-0.999910,0.003381,0.003741,-0.059263,-0.006468,-0.003371,-0.004434,345.408051,349.870850,-1.000000,0.000000,0.000000
482148817.780144,0.009766,-0.009827,-1.060196,0.009269,0.009661,0.000361,0.999957,0.000450,-0.009269,-0.000361,0.999953,0.009661,0.009272,-0.009657,0.999910,0.009269,-0.009661,-0.999910,0.003381,0.003741,-0.059263,-0.006468,-0.003371,-0.004434,345.408051,349.870850,-1.000000,0.000000,0.000000
482148817.790084,0.010818,-0.010849,-1.064102,0.009274,0.009671,0.000347,0.999957,0.000437,-0.009273,-0.000347,0.999953,0.009671,0.009277,-0.009667,0.999910,0.009273,-0.009671,-0.999910,0.001453,0.000851,-0.056364,0.004618,0.001352,-0.001914,345.408051,349.870850,-1.000000,0.000000,0.000000
482148817.800258,0.011810,-0.010895,-1.065079,0.009332,0.009641,0.000363,0.999956,0.000453,-0.009332,-0.000363,0.999953,0.009641,0.009336,-0.009637,0.999910,0.009332,-0.009641,-0.999910,0.000434,-0.000186,-0.060286,0.002105,0.001412,0.006692,345.408051,349.870850,-1.000000,0.000000,0.000000
482148817.814112,0.011765,-0.009903,-1.064102,0.009324,0.009625,0.000320,0.999956,0.000410,-0.009324,-0.000320,0.999954,0.009625,0.009327,-0.009622,0.999910,0.009324,-0.009625,-0.999910,0.001495,-0.001224,-0.064192,-0.006490,-0.002204,-0.004432,345.408051,349.870850,-1.000000,0.000000,0.000000
482148817.819406,0.006851,-0.009811,-1.065109,0.009324,0.009625,0.000320,0.999956,0.000410,-0.009324,-0.000320,0.999954,0.009625,0.009327,-0.009622,0.999910,0.009324,-0.009625,-0.999910,0.001495,-0.001224,-0.064192,-0.006490,-0.002204,-0.004432,345.408051,349.870850,-1.000000,0.000000,0.000000
482148817.830202,0.011734,-0.008881,-1.062149,0.009286,0.009648,0.000309,0.999957,0.000398,-0.009286,-0.000309,0.999953,0.009648,0.009289,-0.009645,0.999910,0.009286,-0.009648,-0.999910,0.002524,-0.001247,-0.065168,0.001214,0.000286,0.003576,345.408051,349.870850,-1.000000,0.000000,0.000000
482148817.842978,0.006836,-0.008804,-1.065109,0.009301,0.009641,0.000331,0.999957,0.000421,-0.009301,-0.000331,0.999953,0.009641,0.009304,-0.009638,0.999910,0.009301,-0.009641,-0.999910,0.002464,-0.000262,-0.064192,0.002444,0.002617,0.004816,345.408051,349.870850,-1.000000,0.000000,0.000000
482148817.849729,0.006836,-0.008804,-1.065109,0.009301,0.009641,0.000331,0.999957,0.000421,-0.009301,-0.000331,0.999953,0.009641,0.009304,-0.009638,0.999910,0.009301,-0.009641,-0.999910,0.002464,-0.000262,-0.064192,0.002444,0.002617,0.004816,345.408051,349.870850,-1.000000,0.000000,0.000000
482148817.859991,0.009781,-0.009857,-1.064117,0.009280,0.009679,0.000400,0.999957,0.000490,-0.009279,-0.000400,0.999953,0.009678,0.009284,-0.009674,0.999910,0.009279,-0.009678,-0.999910,0.002455,0.000798,-0.062239,-0.000015,-0.005517,0.001099,345.408051,349.870850,-1.000000,0.000000,0.000000
482148817.869673,0.009705,-0.006882,-1.063110,0.009280,0.009679,0.000400,0.999957,0.000490,-0.009279,-0.000400,0.999953,0.009678,0.009284,-0.009674,0.999910,0.009279,-0.009678,-0.999910,0.002455,0.000798,-0.062239,-0.000015,-0.005517,0.001099,345.408051,349.870850,-1.000000,0.000000,0.000000
482148817.879671,0.008896,-0.012833,-1.066071,0.009220,0.009626,0.000400,0.999957,0.000489,-0.009220,-0.000400,0.999954,0.009626,0.009224,-0.009622,0.999911,0.009220,-0.009626,-0.999911,-0.002384,0.000822,-0.065198,-0.004948,0.001374,0.001088,345.408051,349.870850,-1.000000,0.000000,0.000000
482148817.890167,0.009796,-0.010818,-1.062164,0.009317,0.009599,0.000391,0.999956,0.000481,-0.009316,-0.000391,0.999954,0.009598,0.009321,-0.009594,0.999911,0.009316,-0.009598,-0.999911,0.000388,0.002717,-0.063200,0.001221,0.008336,-0.000104,345.408051,349.870850,-1.000000,0.000000,0.000000
482148817.901652,0.014771,-0.009964,-1.066025,0.009320,0.009641,0.000468,0.999956,0.000558,-0.009319,-0.000468,0.999953,0.009641,0.009324,-0.009636,0.999910,0.009319,-0.009641,-0.999910,0.000386,0.002759,-0.063200,0.004886,-0.001947,0.009745,345.408051,349.870850,-1.000000,0.000000,0.000000
482148817.909847,0.011765,-0.009903,-1.063110,0.009320,0.009641,0.000468,0.999956,0.000558,-0.009319,-0.000468,0.999953,0.009641,0.009324,-0.009636,0.999910,0.009319,-0.009641,-0.999910,0.000386,0.002759,-0.063200,0.004886,-0.001947,0.009745,345.408051,349.870850,-1.000000,0.000000,0.000000
482148817.920062,0.008759,-0.007843,-1.063126,0.009303,0.009680,0.000496,0.999957,0.000586,-0.009303,-0.000496,0.999953,0.009680,0.009308,-0.009675,0.999910,0.009303,-0.009680,-0.999910,0.000493,-0.001138,-0.062254,-0.002483,-0.003228,0.001091,345.408051,349.870850,-1.000000,0.000000,0.000000
482148817.931447,0.010788,-0.009872,-1.063110,0.009423,0.009674,0.000536,0.999955,0.000627,-0.009422,-0.000536,0.999953,0.009674,0.009428,-0.009668,0.999909,0.009422,-0.009674,-0.999909,0.005348,-0.000290,-0.066116,0.001198,0.001474,0.007271,345.408051,349.870850,-1.000000,0.000000,0.000000
482148817.942049,0.010788,-0.009872,-1.063110,0.009423,0.009674,0.000536,0.999955,0.000627,-0.009422,-0.000536,0.999953,0.009674,0.009428,-0.009668,0.999909,0.009422,-0.009674,-0.999909,0.005348,-0.000290,-0.066116,0.001198,0.001474,0.007271,345.408051,349.870850,-1.000000,0.000000,0.000000
482148817.949643,0.012741,-0.008881,-1.060165,0.009480,0.009615,0.000557,0.999955,0.000648,-0.009479,-0.000557,0.999954,0.009615,0.009485,-0.009610,0.999909,0.009479,-0.009615,-0.999909,-0.000721,0.001772,-0.063217,-0.001260,0.000270,0.003564,345.408051,349.870850,-1.000000,0.000000,0.000000
482148817.973118,0.011749,-0.009872,-1.060181,0.009506,0.009609,0.000622,0.999955,0.000713,-0.009506,-0.000622,0.999954,0.009609,0.009512,-0.009603,0.999909,0.009506,-0.009609,-0.999909,0.001282,-0.000263,-0.063202,-0.000043,0.000321,0.008494,345.408051,349.870850,-1.000000,0.000000,0.000000
482148817.979570,0.011749,-0.009872,-1.060181,0.009566,0.009646,0.000738,0.999954,0.000831,-0.009565,-0.000738,0.999953,0.009646,0.009573,-0.009638,0.999908,0.009565,-0.009646,-0.999908,0.003176,0.000765,-0.060258,0.004901,0.000327,0.004824,345.408051,349.870850,-1.000000,0.000000,0.000000
482148817.991347,0.007828,-0.011780,-1.060196,0.009542,0.009679,0.000725,0.999954,0.000817,-0.009542,-0.000725,0.999953,0.009679,0.009549,-0.009671,0.999908,0.009542,-0.009679,-0.999908,-0.000829,0.002828,-0.062241,0.009849,0.001473,-0.000058,345.408051,349.870850,-1.000000,0.000000,0.000000
482148817.999763,0.013718,-0.008911,-1.062134,0.009542,0.009679,0.000725,0.999954,0.000817,-0.009542,-0.000725,0.999953,0.009679,0.009549,-0.009671,0.999908,0.009542,-0.009679,-0.999908,-0.000829,0.002828,-0.062241,0.009849,0.001473,-0.000058,345.408051,349.870850,-1.000000,0.000000,0.000000
482148818.009693,0.010818,-0.011826,-1.060181,0.009597,0.009652,0.000759,0.999954,0.000851,-0.009597,-0.000759,0.999953,0.009651,0.009604,-0.009644,0.999907,0.009597,-0.009651,-0.999907,0.002153,-0.000221,-0.060273,-0.002478,0.003675,-0.002573,345.408051,349.870850,-1.000000,0.000000,0.000000
482148818.020447,0.005814,-0.008759,-1.062180,0.009552,0.009721,0.000746,0.999954,0.000839,-0.009551,-0.000746,0.999952,0.009721,0.009559,-0.009714,0.999907,0.009551,-0.009721,-0.999907,-0.001723,-0.002058,-0.060289,0.004906,-0.000851,0.002378,345.408051,349.870850,-1.000000,0.000000,0.000000
482148818.030083,0.008804,-0.009842,-1.063126,0.009552,0.009721,0.000746,0.999954,0.000839,-0.009551,-0.000746,0.999952,0.009721,0.009559,-0.009714,0.999907,0.009551,-0.009721,-0.999907,-0.001723,-0.002058,-0.060289,0.004906,-0.000851,0.002378,345.408051,349.870850,-1.000000,0.000000,0.000000
482148818.039932,0.013779,-0.010910,-1.063095,0.009644,0.009778,0.000767,0.999953,0.000861,-0.009644,-0.000767,0.999952,0.009778,0.009652,-0.009770,0.999906,0.009644,-0.009778,-0.999906,0.001175,-0.002048,-0.060275,0.011082,0.004948,-0.000047,345.408051,349.870850,-1.000000,0.000000,0.000000
482148818.050069,0.009796,-0.009872,-1.065094,0.009572,0.009771,0.000742,0.999954,0.000836,-0.009571,-0.000742,0.999952,0.009771,0.009579,-0.009763,0.999906,0.009571,-0.009771,-0.999906,-0.003757,0.001012,-0.062273,-0.003692,-0.001007,-0.008741,345.408051,349.870850,-1.000000,0.000000,0.000000
482148818.060318,0.009689,-0.006866,-1.062149,0.009572,0.009771,0.000742,0.999954,0.000836,-0.009571,-0.000742,0.999952,0.009771,0.009579,-0.009763,0.999906,0.009571,-0.009771,-0.999906,-0.003757,0.001012,-0.062273,-0.003692,-0.001007,-0.008741,345.408051,349.870850,-1.000000,0.000000,0.000000
482148818.069373,0.009689,-0.006866,-1.062149,0.009682,0.009806,0.000800,0.999953,0.000895,-0.009682,-0.000800,0.999952,0.009806,0.009690,-0.009798,0.999905,0.009682,-0.009806,-0.999905,0.004097,-0.001104,-0.063190,0.001205,-0.000876,0.002361,345.408051,349.870850,-1.000000,0.000000,0.000000
482148818.079848,0.007736,-0.007812,-1.061172,0.009662,0.009806,0.000727,0.999953,0.000822,-0.009662,-0.000727,0.999952,0.009805,0.009669,-0.009798,0.999905,0.009662,-0.009805,-0.999905,0.004117,-0.001105,-0.063190,-0.002463,0.000168,-0.007503,345.408051,349.870850,-1.000000,0.000000,0.000000
482148818.090876,0.007751,-0.006882,-1.068024,0.009662,0.009806,0.000727,0.999953,0.000822,-0.009662,-0.000727,0.999952,0.009805,0.009669,-0.009798,0.999905,0.009662,-0.009805,-0.999905,0.004117,-0.001105,-0.063190,-0.002463,0.000168,-0.007503,345.408051,349.870850,-1.000000,0.000000,0.000000
482148818.099907,0.011795,-0.011871,-1.062149,0.009676,0.009760,0.000689,0.999953,0.000783,-0.009676,-0.000689,0.999952,0.009760,0.009683,-0.009753,0.999906,0.009676,-0.009760,-0.999906,0.000014,0.002893,-0.062243,0.002445,0.004885,-0.000087,345.408051,349.870850,-1.000000,0.000000,0.000000
482148818.109993,0.012787,-0.010880,-1.061142,0.009627,0.009708,0.000724,0.999953,0.000818,-0.009626,-0.000724,0.999953,0.009708,0.009634,-0.009700,0.999907,0.009626,-0.009708,-0.999907,-0.001890,0.001895,-0.061266,-0.002511,-0.000874,0.006037,345.408051,349.870850,-1.000000,0.000000,0.000000
482148818.121056,0.009857,-0.012833,-1.064117,0.009610,0.009652,0.000836,0.999953,0.000929,-0.009610,-0.000836,0.999953,0.009652,0.009618,-0.009644,0.999907,0.009610,-0.009652,-0.999907,0.002185,-0.002219,-0.062242,0.004880,0.000354,0.008534,345.408051,349.870850,-1.000000,0.000000,0.000000
482148818.129814,0.011749,-0.009888,-1.062149,0.009610,0.009652,0.000836,0.999953,0.000929,-0.009610,-0.000836,0.999953,0.009652,0.009618,-0.009644,0.999907,0.009610,-0.009652,-0.999907,0.002185,-0.002219,-0.062242,0.004880,0.000354,0.008534,345.408051,349.870850,-1.000000,0.000000,0.000000
482148818.139993,0.011734,-0.008881,-1.061157,0.009699,0.009645,0.000841,0.999953,0.000935,-0.009698,-0.000841,0.999953,0.009645,0.009706,-0.009637,0.999906,0.009698,-0.009645,-0.999906,0.003089,-0.001234,-0.061236,-0.004957,0.005986,-0.000119,345.408051,349.870850,-1.000000,0.000000,0.000000
482148818.150990,0.006805,-0.008774,-1.061188,0.009705,0.009608,0.000893,0.999952,0.000987,-0.009705,-0.000893,0.999953,0.009608,0.009714,-0.009598,0.999907,0.009705,-0.009608,-0.999907,0.000153,-0.003225,-0.064211,-0.006222,0.002596,0.009719,345.408051,349.870850,-1.000000,0.000000,0.000000
482148818.160233,0.011871,-0.012909,-1.068024,0.009705,0.009608,0.000893,0.999952,0.000987,-0.009705,-0.000893,0.999953,0.009608,0.009714,-0.009598,0.999907,0.009705,-0.009608,-0.999907,0.000153,-0.003225,-0.064211,-0.006222,0.002596,0.009719,345.408051,349.870850,-1.000000,0.000000,0.000000
482148818.169310,0.011871,-0.012909,-1.068024,0.009745,0.009578,0.000892,0.999952,0.000986,-0.009744,-0.000892,0.999954,0.009577,0.009753,-0.009568,0.999907,0.009744,-0.009577,-0.999907,0.002005,-0.000310,-0.062242,-0.003715,0.003665,-0.002579,345.408051,349.870850,-1.000000,0.000000,0.000000
482148818.179878,0.007721,-0.005875,-1.065079,0.009733,0.009619,0.000914,0.999952,0.001008,-0.009733,-0.000914,0.999953,0.009619,0.009742,-0.009609,0.999906,0.009733,-0.009619,-0.999906,-0.002927,0.000845,-0.061281,0.011067,0.002656,0.002411,345.408051,349.870850,-1.000000,0.000000,0.000000
482148818.189994,0.008774,-0.008820,-1.062164,0.009733,0.009619,0.000914,0.999952,0.001008,-0.009733,-0.000914,0.999953,0.009619,0.009742,-0.009609,0.999906,0.009733,-0.009619,-0.999906,-0.002927,0.000845,-0.061281,0.011067,0.002656,0.002411,345.408051,349.870850,-1.000000,0.000000,0.000000
482148818.199680,0.011734,-0.007919,-1.065079,0.009807,0.009697,0.000949,0.999951,0.001044,-0.009807,-0.000949,0.999953,0.009696,0.009816,-0.009687,0.999905,0.009807,-0.009696,-0.999905,0.002065,-0.003213,-0.068119,0.001202,0.003741,0.002368,345.408051,349.870850,-1.000000,0.000000,0.000000
482148818.210055,0.008835,-0.011810,-1.062164,0.009745,0.009555,0.001013,0.999952,0.001106,-0.009744,-0.001013,0.999954,0.009555,0.009754,-0.009545,0.999907,0.009744,-0.009555,-0.999907,-0.000970,0.000735,-0.062257,0.001195,0.006058,0.003602,345.408051,349.870850,-1.000000,0.000000,0.000000
482148818.220183,0.010818,-0.011841,-1.062149,0.009745,0.009555,0.001013,0.999952,0.001106,-0.009744,-0.001013,0.999954,0.009555,0.009754,-0.009545,0.999907,0.009744,-0.009555,-0.999907,-0.000970,0.000735,-0.062257,0.001195,0.006058,0.003602,345.408051,349.870850,-1.000000,0.000000,0.000000
482148818.229655,0.013763,-0.009949,-1.065063,0.009788,0.009526,0.001042,0.999951,0.001135,-0.009788,-0.001042,0.999954,0.009526,0.009798,-0.009515,0.999907,0.009788,-0.009526,-0.999907,0.001946,0.001607,-0.065172,0.001193,0.002595,0.003597,345.408051,349.870850,-1.000000,0.000000,0.000000
482148818.240130,0.005875,-0.010757,-1.064133,0.009811,0.009677,0.001112,0.999951,0.001206,-0.009810,-0.001112,0.999953,0.009676,0.009821,-0.009665,0.999905,0.009810,-0.009676,-0.999905,-0.000975,-0.002134,-0.062259,0.008598,0.002636,0.002400,345.408051,349.870850,-1.000000,0.000000,0.000000
482148818.251246,0.012772,-0.009918,-1.063095,0.009811,0.009677,0.001112,0.999951,0.001206,-0.009810,-0.001112,0.999953,0.009676,0.009821,-0.009665,0.999905,0.009810,-0.009676,-0.999905,-0.000975,-0.002134,-0.062259,0.008598,0.002636,0.002400,345.408051,349.870850,-1.000000,0.000000,0.000000
482148818.259883,0.012833,-0.011917,-1.066040,0.009854,0.009710,0.001063,0.999951,0.001158,-0.009853,-0.001063,0.999952,0.009710,0.009864,-0.009699,0.999904,0.009853,-0.009710,-0.999904,0.000965,-0.002131,-0.062245,-0.000021,0.006008,-0.001328,345.408051,349.870850,-1.000000,0.000000,0.000000
482148818.270118,0.011765,-0.010849,-1.059204,0.009834,0.009717,0.001085,0.999951,0.001180,-0.009833,-0.001085,0.999952,0.009717,0.009844,-0.009705,0.999904,0.009833,-0.009717,-0.999904,-0.003959,-0.001041,-0.064228,0.002460,0.002518,-0.006246,345.408051,349.870850,-1.000000,0.000000,0.000000
482148818.281470,0.011765,-0.010849,-1.059204,0.009834,0.009717,0.001085,0.999951,0.001180,-0.009833,-0.001085,0.999952,0.009717,0.009844,-0.009705,0.999904,0.009833,-0.009717,-0.999904,-0.003959,-0.001041,-0.064228,0.002460,0.002518,-0.006246,345.408051,349.870850,-1.000000,0.000000,0.000000
482148818.289821,0.006836,-0.008804,-1.066086,0.009901,0.009708,0.001023,0.999950,0.001119,-0.009900,-0.001023,0.999952,0.009708,0.009911,-0.009698,0.999904,0.009900,-0.009708,-0.999904,0.002871,-0.000210,-0.063191,-0.001236,0.002483,-0.007494,345.408051,349.870850,-1.000000,0.000000,0.000000
482148818.299801,0.007812,-0.010788,-1.061172,0.009948,0.009804,0.000961,0.999950,0.001058,-0.009947,-0.000960,0.999951,0.009804,0.009957,-0.009794,0.999902,0.009947,-0.009804,-0.999902,0.001817,-0.001045,-0.059302,-0.001251,0.003682,-0.002568,345.408051,349.870850,-1.000000,0.000000,0.000000
482148818.310055,0.009781,-0.008865,-1.065094,0.009860,0.009751,0.000990,0.999951,0.001086,-0.009860,-0.000990,0.999952,0.009751,0.009870,-0.009741,0.999904,0.009860,-0.009751,-0.999904,-0.003024,0.000947,-0.066182,-0.001256,0.000226,-0.001343,345.408051,349.870850,-1.000000,0.000000,0.000000
482148818.319919,0.008835,-0.010818,-1.064117,0.009860,0.009751,0.000990,0.999951,0.001086,-0.009860,-0.000990,0.999952,0.009751,0.009870,-0.009741,0.999904,0.009860,-0.009751,-0.999904,-0.003024,0.000947,-0.066182,-0.001256,0.000226,-0.001343,345.408051,349.870850,-1.000000,0.000000,0.000000
482148818.329987,0.010757,-0.008835,-1.060181,0.009839,0.009812,0.000934,0.999951,0.001031,-0.009839,-0.000934,0.999951,0.009812,0.009848,-0.009802,0.999903,0.009839,-0.009812,-0.999903,-0.002026,-0.000976,-0.061269,0.002437,0.002581,0.001140,345.408051,349.870850,-1.000000,0.000000,0.000000
482148818.340144,0.008743,-0.006882,-1.066055,0.009823,0.009753,0.000916,0.999951,0.001012,-0.009823,-0.000916,0.999952,0.009753,0.009832,-0.009743,0.999904,0.009823,-0.009753,-0.999904,-0.000042,0.000887,-0.065190,-0.007423,0.001334,-0.001369,345.408051,349.870850,-1.000000,0.000000,0.000000
482148818.349918,0.007812,-0.010788,-1.062164,0.009823,0.009753,0.000916,0.999951,0.001012,-0.009823,-0.000916,0.999952,0.009753,0.009832,-0.009743,0.999904,0.009823,-0.009753,-0.999904,-0.000042,0.000887,-0.065190,-0.007423,0.001334,-0.001369,345.408051,349.870850,-1.000000,0.000000,0.000000
482148818.360008,0.013763,-0.010880,-1.060165,0.009783,0.009793,0.000926,0.999952,0.001021,-0.009783,-0.000925,0.999952,0.009793,0.009792,-0.009783,0.999904,0.009783,-0.009793,-0.999904,0.000975,0.000958,-0.060276,0.006146,-0.002045,-0.002544,345.408051,349.870850,-1.000000,0.000000,0.000000
482148818.370035,0.007782,-0.008820,-1.064117,0.009716,0.009692,0.000949,0.999952,0.001043,-0.009715,-0.000949,0.999953,0.009692,0.009725,-0.009683,0.999906,0.009715,-0.009692,-0.999906,-0.000972,0.002811,-0.066149,-0.003737,-0.006704,0.001097,345.408051,349.870850,-1.000000,0.000000,0.000000
482148818.383043,0.007782,-0.008820,-1.064117,0.009716,0.009692,0.000949,0.999952,0.001043,-0.009715,-0.000949,0.999953,0.009692,0.009725,-0.009683,0.999906,0.009715,-0.009692,-0.999906,-0.000972,0.002811,-0.066149,-0.003737,-0.006704,0.001097,345.408051,349.870850,-1.000000,0.000000,0.000000
482148818.389419,0.009827,-0.011841,-1.064117,0.009683,0.009652,0.000923,0.999953,0.001016,-0.009682,-0.000923,0.999953,0.009652,0.009691,-0.009643,0.999907,0.009682,-0.009652,-0.999907,0.004081,-0.001227,-0.060259,-0.004956,-0.004434,-0.002598,345.408051,349.870850,-1.000000,0.000000,0.000000
482148818.399340,0.007858,-0.011826,-1.066071,0.009685,0.009658,0.000934,0.999953,0.001027,-0.009684,-0.000934,0.999953,0.009658,0.009694,-0.009648,0.999906,0.009684,-0.009658,-0.999906,0.004079,-0.001222,-0.060259,-0.000026,0.001386,-0.001335,345.408051,349.870850,-1.000000,0.000000,0.000000
482148818.409748,0.006744,-0.006805,-1.062164,0.009685,0.009658,0.000934,0.999953,0.001027,-0.009684,-0.000934,0.999953,0.009658,0.009694,-0.009648,0.999906,0.009684,-0.009658,-0.999906,0.004079,-0.001222,-0.060259,-0.000026,0.001386,-0.001335,345.408051,349.870850,-1.000000,0.000000,0.000000
482148818.419749,0.011703,-0.007889,-1.061157,0.009719,0.009702,0.000986,0.999952,0.001080,-0.009718,-0.000986,0.999952,0.009702,0.009729,-0.009692,0.999906,0.009718,-0.009702,-0.999906,0.000108,-0.002139,-0.064212,0.003650,0.001473,0.006068,345.408051,349.870850,-1.000000,0.000000,0.000000
482148818.430046,0.007706,-0.006821,-1.060181,0.009687,0.009735,0.001033,0.999952,0.001128,-0.009687,-0.001033,0.999952,0.009735,0.009697,-0.009724,0.999906,0.009687,-0.009735,-0.999906,-0.001829,-0.002091,-0.066165,0.004896,0.001448,0.002380,345.408051,349.870850,-1.000000,0.000000,0.000000
482148818.440446,0.009766,-0.008850,-1.064117,0.009728,0.009741,0.001211,0.999952,0.001306,-0.009727,-0.001211,0.999952,0.009741,0.009739,-0.009729,0.999905,0.009727,-0.009741,-0.999905,0.001976,0.001852,-0.061252,0.009813,0.001514,0.006096,345.408051,349.870850,-1.000000,0.000000,0.000000
482148818.450097,0.012772,-0.009918,-1.063095,0.009728,0.009741,0.001211,0.999952,0.001306,-0.009727,-0.001211,0.999952,0.009741,0.009739,-0.009729,0.999905,0.009727,-0.009741,-0.999905,0.001976,0.001852,-0.061252,0.009813,0.001514,0.006096,345.408051,349.870850,-1.000000,0.000000,0.000000
482148818.459152,0.011795,-0.010880,-1.064102,0.009649,0.009718,0.001228,0.999953,0.001322,-0.009649,-0.001228,0.999952,0.009718,0.009661,-0.009706,0.999906,0.009649,-0.009718,-0.999906,-0.001943,0.002898,-0.060274,0.003668,-0.002059,-0.001324,345.408051,349.870850,-1.000000,0.000000,0.000000
482148818.470935,0.008789,-0.008835,-1.063126,0.009684,0.009769,0.001238,0.999952,0.001332,-0.009684,-0.001238,0.999952,0.009769,0.009696,-0.009756,0.999905,0.009684,-0.009769,-0.999905,0.000082,0.000919,-0.064212,0.007375,-0.002054,-0.003769,345.408051,349.870850,-1.000000,0.000000,0.000000
482148818.481951,0.013824,-0.012909,-1.063095,0.009684,0.009769,0.001238,0.999952,0.001332,-0.009684,-0.001238,0.999952,0.009769,0.009696,-0.009756,0.999905,0.009684,-0.009769,-0.999905,0.000082,0.000919,-0.064212,0.007375,-0.002054,-0.003769,345.408051,349.870850,-1.000000,0.000000,0.000000
482148818.492679,0.009766,-0.008850,-1.064117,0.009748,0.009706,0.001302,0.999952,0.001397,-0.009748,-0.001302,0.999952,0.009706,0.009761,-0.009693,0.999905,0.009748,-0.009706,-0.999905,0.003024,-0.000212,-0.063190,-0.009927,-0.000926,0.007233,345.408051,349.870850,-1.000000,0.000000,0.000000
482148818.499645,0.009766,-0.008850,-1.064117,0.009683,0.009742,0.001348,0.999952,0.001442,-0.009682,-0.001348,0.999952,0.009742,0.009696,-0.009729,0.999906,0.009682,-0.009742,-0.999906,-0.000893,0.000907,-0.063220,-0.001281,-0.005526,0.002341,345.408051,349.870850,-1.000000,0.000000,0.000000
482148818.510185,0.012817,-0.011902,-1.063095,0.009683,0.009742,0.001348,0.999952,0.001442,-0.009682,-0.001348,0.999952,0.009742,0.009696,-0.009729,0.999906,0.009682,-0.009742,-0.999906,-0.000893,0.000907,-0.063220,-0.001281,-0.005526,0.002341,345.408051,349.870850,-1.000000,0.000000,0.000000
482148818.519408,0.014755,-0.008957,-1.065048,0.009734,0.009813,0.001346,0.999952,0.001441,-0.009733,-0.001346,0.999951,0.009813,0.009747,-0.009799,0.999905,0.009733,-0.009813,-0.999905,0.004092,-0.003096,-0.063191,0.007371,-0.002040,-0.002538,345.408051,349.870850,-1.000000,0.000000,0.000000
482148818.530109,0.007721,-0.006851,-1.064102,0.009739,0.009809,0.001320,0.999952,0.001415,-0.009739,-0.001319,0.999951,0.009809,0.009752,-0.009796,0.999904,0.009739,-0.009809,-0.999904,0.003079,-0.002093,-0.063191,-0.003712,0.000150,-0.007510,345.408051,349.870850,-1.000000,0.000000,0.000000
482148818.540668,0.011780,-0.010864,-1.062149,0.009739,0.009809,0.001320,0.999952,0.001415,-0.009739,-0.001319,0.999951,0.009809,0.009752,-0.009796,0.999904,0.009739,-0.009809,-0.999904,0.003079,-0.002093,-0.063191,-0.003712,0.000150,-0.007510,345.408051,349.870850,-1.000000,0.000000,0.000000
482148818.549536,0.008820,-0.009857,-1.065094,0.009799,0.009788,0.001378,0.999951,0.001473,-0.009798,-0.001377,0.999951,0.009788,0.009812,-0.009774,0.999904,0.009798,-0.009788,-0.999904,0.004957,0.000831,-0.065144,-0.001295,-0.000858,0.007272,345.408051,349.870850,-1.000000,0.000000,0.000000
482148818.560074,0.012756,-0.008911,-1.063095,0.009802,0.009680,0.001376,0.999951,0.001471,-0.009801,-0.001376,0.999952,0.009680,0.009815,-0.009666,0.999905,0.009801,-0.009680,-0.999905,0.001979,-0.001184,-0.062244,-0.003740,-0.002094,-0.000127,345.408051,349.870850,-1.000000,0.000000,0.000000
482148818.571234,0.008774,-0.009811,-1.058243,0.009802,0.009680,0.001376,0.999951,0.001471,-0.009801,-0.001376,0.999952,0.009680,0.009815,-0.009666,0.999905,0.009801,-0.009680,-0.999905,0.001979,-0.001184,-0.062244,-0.003740,-0.002094,-0.000127,345.408051,349.870850,-1.000000,0.000000,0.000000
482148818.579901,0.010605,-0.001938,-1.063095,0.009787,0.009668,0.001345,0.999951,0.001440,-0.009786,-0.001345,0.999952,0.009668,0.009800,-0.009654,0.999905,0.009786,-0.009668,-0.999905,0.001993,-0.001197,-0.062244,-0.001273,-0.003231,-0.000118,345.408051,349.870850,-1.000000,0.000000,0.000000
482148818.590120,0.007751,-0.007828,-1.063126,0.009800,0.009617,0.001397,0.999951,0.001491,-0.009799,-0.001397,0.999953,0.009617,0.009813,-0.009603,0.999906,0.009799,-0.009617,-0.999906,0.002957,0.000706,-0.063189,-0.001294,-0.002024,0.006039,345.408051,349.870850,-1.000000,0.000000,0.000000
482148818.601420,0.007736,-0.007812,-1.062164,0.009830,0.009676,0.001390,0.999951,0.001485,-0.009829,-0.001390,0.999952,0.009676,0.009843,-0.009662,0.999905,0.009829,-0.009676,-0.999905,-0.001056,-0.000136,-0.058338,0.009812,0.009591,0.004877,345.408051,349.870850,-1.000000,0.000000,0.000000
482148818.610378,0.007736,-0.007812,-1.062164,0.009830,0.009676,0.001390,0.999951,0.001485,-0.009829,-0.001390,0.999952,0.009676,0.009843,-0.009662,0.999905,0.009829,-0.009676,-0.999905,-0.001056,-0.000136,-0.058338,0.009812,0.009591,0.004877,345.408051,349.870850,-1.000000,0.000000,0.000000
482148818.621110,0.010803,-0.010834,-1.062149,0.009816,0.009437,0.001395,0.999951,0.001487,-0.009815,-0.001394,0.999955,0.009437,0.009829,-0.009423,0.999907,0.009815,-0.009437,-0.999907,-0.002063,0.001609,-0.063218,-0.001277,0.000220,-0.001344,345.408051,349.870850,-1.000000,0.000000,0.000000
482148818.630352,0.010818,-0.010849,-1.064102,0.009816,0.009437,0.001395,0.999951,0.001487,-0.009815,-0.001394,0.999955,0.009437,0.009829,-0.009423,0.999907,0.009815,-0.009437,-0.999907,-0.002063,0.001609,-0.063218,-0.001277,0.000220,-0.001344,345.408051,349.870850,-1.000000,0.000000,0.000000
482148818.639784,0.010818,-0.010849,-1.063110,0.009769,0.009438,0.001316,0.999951,0.001408,-0.009769,-0.001316,0.999955,0.009438,0.009782,-0.009424,0.999908,0.009769,-0.009438,-0.999908,-0.002033,0.001625,-0.062257,0.007374,-0.002083,-0.007463,345.408051,349.870850,-1.000000,0.000000,0.000000
482148818.650037,0.005798,-0.006836,-1.067062,0.009782,0.009577,0.001319,0.999951,0.001413,-0.009782,-0.001319,0.999953,0.009577,0.009795,-0.009563,0.999906,0.009782,-0.009577,-0.999906,0.001021,-0.001257,-0.062243,0.009829,-0.000878,-0.003757,345.408051,349.870850,-1.000000,0.000000,0.000000
482148818.660053,0.007828,-0.010803,-1.063126,0.009759,0.009642,0.001276,0.999951,0.001370,-0.009758,-0.001276,0.999953,0.009642,0.009771,-0.009629,0.999906,0.009758,-0.009642,-0.999906,0.001060,-0.001207,-0.064196,0.004888,-0.003202,-0.001321,345.408051,349.870850,-1.000000,0.000000,0.000000
482148818.670173,0.014725,-0.008926,-1.061127,0.009759,0.009642,0.001276,0.999951,0.001370,-0.009758,-0.001276,0.999953,0.009642,0.009771,-0.009629,0.999906,0.009758,-0.009642,-0.999906,0.001060,-0.001207,-0.064196,0.004888,-0.003202,-0.001321,345.408051,349.870850,-1.000000,0.000000,0.000000
482148818.679730,0.011749,-0.007935,-1.067047,0.009710,0.009554,0.001251,0.999952,0.001343,-0.009710,-0.001251,0.999954,0.009553,0.009722,-0.009541,0.999907,0.009710,-0.009553,-0.999907,-0.003911,0.002717,-0.067155,-0.002513,0.001362,-0.001348,345.408051,349.870850,-1.000000,0.000000,0.000000
482148818.690527,0.008743,-0.007828,-1.062164,0.009657,0.009600,0.001263,0.999952,0.001356,-0.009656,-0.001263,0.999953,0.009600,0.009669,-0.009588,0.999907,0.009656,-0.009600,-0.999907,-0.001829,-0.001203,-0.063218,0.007312,-0.000878,0.001279,0.000000,0.000000,-1.000000,0.000000,0.000000
482148818.700897,0.012680,-0.006927,-1.062119,0.009657,0.009600,0.001263,0.999952,0.001356,-0.009656,-0.001263,0.999953,0.009600,0.009669,-0.009588,0.999907,0.009656,-0.009600,-0.999907,-0.001829,-0.001203,-0.063218,0.007312,-0.000878,0.001279,0.000000,0.000000,-1.000000,0.000000,0.000000
482148818.709144,0.012680,-0.006927,-1.062119,0.009711,0.009564,0.001340,0.999952,0.001433,-0.009710,-0.001340,0.999953,0.009564,0.009724,-0.009551,0.999907,0.009710,-0.009564,-0.999907,0.002039,0.001630,-0.067140,0.001135,-0.004362,0.003708,346.227203,350.690002,-1.000000,0.000000,0.000000
482148818.720052,0.007782,-0.009796,-1.060196,0.009679,0.009492,0.001352,0.999952,0.001444,-0.009679,-0.001352,0.999954,0.009492,0.009692,-0.009478,0.999908,0.009679,-0.009492,-0.999908,-0.000935,0.001664,-0.062256,-0.003782,0.000179,-0.001232,346.227203,350.690002,-1.000000,0.000000,0.000000
482148818.730027,0.009705,-0.006882,-1.063110,0.009679,0.009492,0.001352,0.999952,0.001444,-0.009679,-0.001352,0.999954,0.009492,0.009692,-0.009478,0.999908,0.009679,-0.009492,-0.999908,-0.000935,0.001664,-0.062256,-0.003782,0.000179,-0.001232,346.227203,350.690002,-1.000000,0.000000,0.000000
482148818.739589,0.005829,-0.009766,-1.061188,0.009705,0.009547,0.001424,0.999952,0.001516,-0.009704,-0.001424,0.999953,0.009547,0.009718,-0.009532,0.999907,0.009704,-0.009547,-0.999907,0.002976,0.002619,-0.062211,0.006051,-0.001976,0.008658,346.227203,350.690002,-1.000000,0.000000,0.000000
482148818.750659,0.014755,-0.009949,-1.064072,0.009617,0.009564,0.001418,0.999953,0.001510,-0.009616,-0.001418,0.999953,0.009564,0.009630,-0.009550,0.999908,0.009616,-0.009564,-0.999908,-0.001834,-0.000232,-0.060288,0.004845,-0.003213,0.000033,346.227203,350.690002,-1.000000,0.000000,0.000000
482148818.761770,0.014725,-0.008911,-1.060150,0.009562,0.009568,0.001341,0.999953,0.001432,-0.009561,-0.001341,0.999953,0.009568,0.009575,-0.009555,0.999909,0.009561,-0.009568,-0.999909,-0.003733,-0.000198,-0.061279,0.001145,0.002532,0.000025,346.230469,350.693268,-1.000000,0.000000,0.000000
482148818.769828,0.010773,-0.008865,-1.063110,0.009562,0.009568,0.001341,0.999953,0.001432,-0.009561,-0.001341,0.999953,0.009568,0.009575,-0.009555,0.999909,0.009561,-0.009568,-0.999909,-0.003733,-0.000198,-0.061279,0.001145,0.002532,0.000025,346.230469,350.693268,-1.000000,0.000000,0.000000
482148818.780065,0.011566,-0.001953,-1.061142,0.009652,0.009569,0.001328,0.999952,0.001421,-0.009652,-0.001328,0.999953,0.009569,0.009665,-0.009555,0.999908,0.009652,-0.009569,-0.999908,0.005103,-0.000380,-0.064164,-0.001319,0.000196,-0.001221,346.230469,350.693268,-1.000000,0.000000,0.000000
482148818.791709,0.010757,-0.008835,-1.060181,0.009674,0.009574,0.001333,0.999952,0.001426,-0.009673,-0.001333,0.999953,0.009574,0.009686,-0.009561,0.999907,0.009673,-0.009574,-0.999907,0.001100,0.000709,-0.063203,0.001150,-0.004413,-0.002448,346.230469,350.693268,-1.000000,0.000000,0.000000
482148818.802261,0.007843,-0.011810,-1.064117,0.009674,0.009574,0.001333,0.999952,0.001426,-0.009673,-0.001333,0.999953,0.009574,0.009686,-0.009561,0.999907,0.009673,-0.009574,-0.999907,0.001100,0.000709,-0.063203,0.001150,-0.004413,-0.002448,346.230469,350.693268,-1.000000,0.000000,0.000000
482148818.809541,0.007843,-0.011810,-1.064117,0.009636,0.009544,0.001346,0.999953,0.001438,-0.009636,-0.001346,0.999954,0.009543,0.009649,-0.009530,0.999908,0.009636,-0.009543,-0.999908,0.001137,0.000678,-0.063202,-0.001334,-0.005544,0.002463,346.234039,350.696838,-1.000000,0.000000,0.000000
482148818.821511,0.007706,-0.006821,-1.060181,0.009696,0.009366,0.001238,0.999952,0.001329,-0.009696,-0.001238,0.999955,0.009366,0.009708,-0.009353,0.999909,0.009696,-0.009366,-0.999909,0.001062,0.000531,-0.060272,-0.003807,0.000224,0.003692,346.234039,350.696838,-1.000000,0.000000,0.000000
482148818.829911,0.007706,-0.006821,-1.060181,0.009696,0.009366,0.001238,0.999952,0.001329,-0.009696,-0.001238,0.999955,0.009366,0.009708,-0.009353,0.999909,0.009696,-0.009366,-0.999909,0.001062,0.000531,-0.060272,-0.003807,0.000224,0.003692,346.234039,350.696838,-1.000000,0.000000,0.000000
482148818.840065,0.010788,-0.008881,-1.066055,0.009677,0.009410,0.001257,0.999952,0.001348,-0.009676,-0.001256,0.999955,0.009410,0.009688,-0.009398,0.999909,0.009676,-0.009410,-0.999909,-0.001833,-0.002400,-0.064209,0.001141,0.006000,0.000030,346.234039,350.696838,-1.000000,0.000000,0.000000
482148818.850039,0.012924,-0.013931,-1.069962,0.009647,0.009420,0.001378,0.999952,0.001468,-0.009646,-0.001377,0.999955,0.009420,0.009660,-0.009406,0.999909,0.009646,-0.009420,-0.999909,-0.001941,0.002599,-0.060272,0.004840,0.003715,0.000044,346.234039,350.696838,-1.000000,0.000000,0.000000
482148818.860430,0.012772,-0.009918,-1.063095,0.009647,0.009420,0.001378,0.999952,0.001468,-0.009646,-0.001377,0.999955,0.009420,0.009660,-0.009406,0.999909,0.009646,-0.009420,-0.999909,-0.001941,0.002599,-0.060272,0.004840,0.003715,0.000044,346.236511,350.699310,-1.000000,0.000000,0.000000
482148818.869940,0.015656,-0.006012,-1.064056,0.009708,0.009386,0.001378,0.999952,0.001469,-0.009708,-0.001378,0.999955,0.009386,0.009721,-0.009372,0.999909,0.009708,-0.009386,-0.999909,0.001080,0.000505,-0.066146,-0.001314,0.008259,-0.003670,346.236511,350.699310,-1.000000,0.000000,0.000000
482148818.880659,0.010651,-0.004883,-1.061142,0.009752,0.009496,0.001407,0.999951,0.001500,-0.009752,-0.001407,0.999954,0.009496,0.009766,-0.009481,0.999907,0.009752,-0.009496,-0.999907,0.003172,-0.004436,-0.070054,0.001145,0.000215,-0.001210,346.236511,350.699310,-1.000000,0.000000,0.000000
482148818.890191,0.009781,-0.008865,-1.065094,0.009752,0.009496,0.001407,0.999951,0.001500,-0.009752,-0.001407,0.999954,0.009496,0.009766,-0.009481,0.999907,0.009752,-0.009496,-0.999907,0.003172,-0.004436,-0.070054,0.001145,0.000215,-0.001210,346.236511,350.699310,-1.000000,0.000000,0.000000
482148818.899947,0.007782,-0.009796,-1.060196,0.009809,0.009467,0.001389,0.999951,0.001482,-0.009809,-0.001389,0.999954,0.009467,0.009822,-0.009453,0.999907,0.009809,-0.009467,-0.999907,0.002963,-0.000451,-0.063188,-0.002555,0.001345,-0.001225,346.236511,350.699310,-1.000000,0.000000,0.000000
482148818.909468,0.007782,-0.009796,-1.060196,0.009877,0.009306,0.001377,0.999950,0.001468,-0.009877,-0.001377,0.999956,0.009306,0.009890,-0.009291,0.999908,0.009877,-0.009306,-0.999908,0.000774,0.004423,-0.061234,-0.001338,0.000232,0.002472,346.236511,350.699310,-1.000000,0.000000,0.000000
482148818.922612,0.007812,-0.009842,-1.065094,0.009877,0.009306,0.001377,0.999950,0.001468,-0.009877,-0.001377,0.999956,0.009306,0.009890,-0.009291,0.999908,0.009877,-0.009306,-0.999908,0.000774,0.004423,-0.061234,-0.001338,0.000232,0.002472,346.238617,350.701416,-1.000000,0.000000,0.000000
482148818.929188,0.010910,-0.014832,-1.064102,0.009850,0.009315,0.001383,0.999950,0.001474,-0.009849,-0.001383,0.999956,0.009315,0.009863,-0.009301,0.999908,0.009849,-0.009315,-0.999908,-0.000068,0.000450,-0.065186,-0.000105,0.000241,0.002478,346.238617,350.701416,-1.000000,0.000000,0.000000
482148818.940079,0.012802,-0.010895,-1.064087,0.009781,0.009299,0.001462,0.999951,0.001553,-0.009780,-0.001462,0.999956,0.009299,0.009794,-0.009284,0.999909,0.009780,-0.009299,-0.999909,-0.001967,-0.000543,-0.065185,-0.002580,0.001397,0.004930,346.238617,350.701416,-1.000000,0.000000,0.000000
482148818.951246,0.012772,-0.008926,-1.066040,0.009781,0.009299,0.001462,0.999951,0.001553,-0.009780,-0.001462,0.999956,0.009299,0.009794,-0.009284,0.999909,0.009780,-0.009299,-0.999909,-0.001967,-0.000543,-0.065185,-0.002580,0.001397,0.004930,346.238617,350.701416,-1.000000,0.000000,0.000000
482148818.960060,0.007782,-0.008820,-1.064117,0.009786,0.009339,0.001486,0.999951,0.001577,-0.009786,-0.001486,0.999955,0.009339,0.009800,-0.009324,0.999909,0.009786,-0.009339,-0.999909,0.001125,-0.005492,-0.064194,-0.006265,0.003649,0.001224,346.238617,350.701416,-1.000000,0.000000,0.000000
482148818.970059,0.011810,-0.011887,-1.064102,0.009767,0.009331,0.001462,0.999951,0.001553,-0.009767,-0.001462,0.999955,0.009331,0.009781,-0.009316,0.999909,0.009767,-0.009331,-0.999909,0.003036,-0.001564,-0.064178,0.002372,-0.000918,0.000025,346.239655,350.702454,-1.000000,0.000000,0.000000
482148818.986247,0.009796,-0.010803,-1.060196,0.009840,0.009300,0.001486,0.999950,0.001577,-0.009839,-0.001486,0.999956,0.009300,0.009853,-0.009285,0.999908,0.009839,-0.009300,-0.999908,0.002932,0.000373,-0.066132,0.001134,0.001394,0.001254,346.239655,350.702454,-1.000000,0.000000,0.000000
482148818.989215,0.011688,-0.005951,-1.065063,0.009840,0.009300,0.001486,0.999950,0.001577,-0.009839,-0.001486,0.999956,0.009300,0.009853,-0.009285,0.999908,0.009839,-0.009300,-0.999908,0.002932,0.000373,-0.066132,0.001134,0.001394,0.001254,346.239655,350.702454,-1.000000,0.000000,0.000000
482148818.999862,0.008850,-0.011826,-1.064117,0.009855,0.009397,0.001432,0.999950,0.001525,-0.009854,-0.001432,0.999955,0.009397,0.009868,-0.009383,0.999907,0.009854,-0.009397,-0.999907,0.001956,-0.002489,-0.064195,-0.001327,0.004830,0.000017,346.239655,350.702454,-1.000000,0.000000,0.000000
482148819.012562,0.011765,-0.009903,-1.063110,0.009851,0.009412,0.001438,0.999950,0.001531,-0.009850,-0.001438,0.999955,0.009412,0.009864,-0.009397,0.999907,0.009850,-0.009412,-0.999907,-0.000054,-0.001391,-0.060289,0.001135,0.000238,0.001252,346.239655,350.702454,-1.000000,0.000000,0.000000
482148819.019576,0.011765,-0.009903,-1.063110,0.009851,0.009412,0.001438,0.999950,0.001531,-0.009850,-0.001438,0.999955,0.009412,0.009864,-0.009397,0.999907,0.009850,-0.009412,-0.999907,-0.000054,-0.001391,-0.060289,0.001135,0.000238,0.001252,346.237610,350.700409,-1.000000,0.000000,0.000000
482148819.029692,0.014679,-0.005997,-1.066010,0.009879,0.009360,0.001607,0.999950,0.001699,-0.009878,-0.001607,0.999955,0.009360,0.009893,-0.009344,0.999907,0.009878,-0.009360,-0.999907,-0.001028,-0.002465,-0.064210,-0.000108,-0.003214,0.003703,346.237610,350.700409,-1.000000,0.000000,0.000000
482148819.040073,0.009750,-0.010773,-1.054321,0.009830,0.009341,0.001631,0.999950,0.001722,-0.009829,-0.001631,0.999955,0.009341,0.009845,-0.009325,0.999908,0.009829,-0.009341,-0.999908,-0.000979,-0.002484,-0.064209,-0.002580,-0.006686,0.004917,346.237610,350.700409,-1.000000,0.000000,0.000000
482148819.050186,0.014847,-0.010971,-1.070938,0.009830,0.009341,0.001631,0.999950,0.001722,-0.009829,-0.001631,0.999955,0.009341,0.009845,-0.009325,0.999908,0.009829,-0.009341,-0.999908,-0.000979,-0.002484,-0.064209,-0.002580,-0.006686,0.004917,346.237610,350.700409,-1.000000,0.000000,0.000000
482148819.060677,0.010742,-0.007874,-1.063110,0.009939,0.009280,0.001708,0.999949,0.001800,-0.009939,-0.001708,0.999955,0.009280,0.009955,-0.009262,0.999908,0.009939,-0.009280,-0.999908,0.004740,0.003283,-0.066102,-0.000113,0.000263,0.004939,346.237610,350.700409,-1.000000,0.000000,0.000000
482148819.069901,0.011734,-0.007919,-1.065079,0.009866,0.009327,0.001678,0.999950,0.001770,-0.009866,-0.001678,0.999955,0.009327,0.009882,-0.009310,0.999908,0.009866,-0.009327,-0.999908,-0.000116,-0.001446,-0.054413,0.004838,-0.006683,-0.001204,346.236938,350.699738,-1.000000,0.000000,0.000000
482148819.080194,0.005875,-0.011749,-1.062180,0.009866,0.009327,0.001678,0.999950,0.001770,-0.009866,-0.001678,0.999955,0.009327,0.009882,-0.009310,0.999908,0.009866,-0.009327,-0.999908,-0.000116,-0.001446,-0.054413,0.004838,-0.006683,-0.001204,346.236938,350.699738,-1.000000,0.000000,0.000000
482148819.089791,0.011688,-0.006927,-1.063095,0.009962,0.009460,0.001683,0.999949,0.001777,-0.009962,-0.001683,0.999954,0.009460,0.009978,-0.009443,0.999906,0.009962,-0.009460,-0.999906,0.000781,0.001586,-0.063205,0.004840,0.001402,-0.001192,346.236938,350.699738,-1.000000,0.000000,0.000000
482148819.100052,0.011826,-0.012863,-1.062149,0.009912,0.009354,0.001683,0.999949,0.001776,-0.009911,-0.001683,0.999955,0.009354,0.009928,-0.009337,0.999907,0.009911,-0.009354,-0.999907,0.001823,0.001435,-0.065172,-0.009966,-0.005620,-0.000039,346.236938,350.699738,-1.000000,0.000000,0.000000
482148819.109869,0.014755,-0.009949,-1.064072,0.009912,0.009354,0.001683,0.999949,0.001776,-0.009911,-0.001683,0.999955,0.009354,0.009928,-0.009337,0.999907,0.009911,-0.009354,-0.999907,0.001823,0.001435,-0.065172,-0.009966,-0.005620,-0.000039,346.236938,350.699738,-1.000000,0.000000,0.000000
482148819.120085,0.010773,-0.009842,-1.060181,0.009871,0.009349,0.001756,0.999950,0.001848,-0.009870,-0.001756,0.999955,0.009348,0.009887,-0.009331,0.999908,0.009870,-0.009348,-0.999908,0.001818,0.002421,-0.063188,-0.000083,0.000180,-0.004909,346.235535,350.698334,-1.000000,0.000000,0.000000
482148819.130143,0.006882,-0.011780,-1.063141,0.009841,0.009382,0.001779,0.999950,0.001872,-0.009840,-0.001779,0.999954,0.009382,0.009857,-0.009364,0.999908,0.009840,-0.009382,-0.999908,0.001985,-0.003481,-0.062241,-0.002578,-0.007847,0.003684,346.235535,350.698334,-1.000000,0.000000,0.000000
482148819.143096,0.009674,-0.005875,-1.062149,0.009945,0.009321,0.001839,0.999949,0.001932,-0.009944,-0.001839,0.999955,0.009320,0.009962,-0.009302,0.999907,0.009944,-0.009320,-0.999907,0.004811,-0.000628,-0.064165,-0.001335,0.002535,0.001244,346.235535,350.698334,-1.000000,0.000000,0.000000
482148819.149650,0.009674,-0.005875,-1.062149,0.009945,0.009321,0.001839,0.999949,0.001932,-0.009944,-0.001839,0.999955,0.009320,0.009962,-0.009302,0.999907,0.009944,-0.009320,-0.999907,0.004811,-0.000628,-0.064165,-0.001335,0.002535,0.001244,346.235535,350.698334,-1.000000,0.000000,0.000000
482148819.159966,0.011719,-0.007904,-1.063110,0.009963,0.009348,0.001749,0.999949,0.001842,-0.009962,-0.001749,0.999955,0.009348,0.009979,-0.009330,0.999907,0.009962,-0.009348,-0.999907,0.000811,-0.000494,-0.060274,-0.001295,0.002431,-0.011067,346.235535,350.698334,-1.000000,0.000000,0.000000
482148819.169908,0.007751,-0.007828,-1.064117,0.009913,0.009306,0.001852,0.999949,0.001944,-0.009913,-0.001852,0.999955,0.009306,0.009930,-0.009287,0.999908,0.009913,-0.009306,-0.999908,-0.000239,0.003431,-0.062241,-0.000117,0.004894,0.006177,346.235535,350.698334,-1.000000,0.000000,0.000000
482148819.180304,0.008911,-0.013809,-1.064117,0.009913,0.009306,0.001852,0.999949,0.001944,-0.009913,-0.001852,0.999955,0.009306,0.009930,-0.009287,0.999908,0.009913,-0.009306,-0.999908,-0.000239,0.003431,-0.062241,-0.000117,0.004894,0.006177,346.235321,350.698120,-1.000000,0.000000,0.000000
482148819.189207,0.009628,-0.003891,-1.061157,0.009931,0.009275,0.001870,0.999949,0.001962,-0.009931,-0.001870,0.999955,0.009275,0.009948,-0.009256,0.999908,0.009931,-0.009275,-0.999908,0.001788,0.001371,-0.063203,-0.000100,-0.000932,0.000013,346.235321,350.698120,-1.000000,0.000000,0.000000
482148819.200032,0.009811,-0.008896,-1.069031,0.009851,0.009325,0.001907,0.999950,0.001999,-0.009850,-0.001907,0.999955,0.009325,0.009868,-0.009306,0.999908,0.009850,-0.009325,-0.999908,-0.000939,-0.004484,-0.064209,-0.000103,-0.000923,0.001244,346.235321,350.698120,-1.000000,0.000000,0.000000
482148819.210201,0.008881,-0.013779,-1.059219,0.009851,0.009325,0.001907,0.999950,0.001999,-0.009850,-0.001907,0.999955,0.009325,0.009868,-0.009306,0.999908,0.009850,-0.009325,-0.999908,-0.000939,-0.004484,-0.064209,-0.000103,-0.000923,0.001244,346.235321,350.698120,-1.000000,0.000000,0.000000
482148819.219820,0.009811,-0.011810,-1.060196,0.009859,0.009348,0.001883,0.999949,0.001975,-0.009858,-0.001883,0.999955,0.009348,0.009876,-0.009329,0.999908,0.009858,-0.009348,-0.999908,-0.000947,-0.004461,-0.064210,0.004842,0.000235,-0.002425,346.235321,350.698120,-1.000000,0.000000,0.000000
482148819.230298,0.012711,-0.007904,-1.061142,0.009846,0.009267,0.001973,0.999949,0.002064,-0.009846,-0.001973,0.999955,0.009267,0.009865,-0.009247,0.999909,0.009846,-0.009267,-0.999909,-0.000034,0.000371,-0.069122,0.002361,0.001403,0.001259,346.234283,350.697083,-1.000000,0.000000,0.000000
482148819.239683,0.012711,-0.007904,-1.061142,0.009846,0.009267,0.001973,0.999949,0.002064,-0.009846,-0.001973,0.999955,0.009267,0.009865,-0.009247,0.999909,0.009846,-0.009267,-0.999909,-0.000034,0.000371,-0.069122,0.002361,0.001403,0.001259,346.234283,350.697083,-1.000000,0.000000,0.000000
482148819.249702,0.008835,-0.012772,-1.057251,0.009888,0.009331,0.001950,0.999949,0.002042,-0.009887,-0.001950,0.999955,0.009331,0.009906,-0.009311,0.999908,0.009887,-0.009331,-0.999908,-0.001007,-0.004448,-0.059312,-0.005028,0.007102,-0.001228,346.234283,350.697083,-1.000000,0.000000,0.000000
482148819.259993,0.005829,-0.008774,-1.064133,0.009882,0.009309,0.001920,0.999949,0.002012,-0.009881,-0.001920,0.999955,0.009309,0.009899,-0.009290,0.999908,0.009881,-0.009309,-0.999908,0.002830,0.001405,-0.061234,0.004824,-0.004343,0.002492,346.234283,350.697083,-1.000000,0.000000,0.000000
482148819.270215,0.009750,-0.008820,-1.060196,0.009882,0.009309,0.001920,0.999949,0.002012,-0.009881,-0.001920,0.999955,0.009309,0.009899,-0.009290,0.999908,0.009881,-0.009309,-0.999908,0.002830,0.001405,-0.061234,0.004824,-0.004343,0.002492,346.234283,350.697083,-1.000000,0.000000,0.000000
482148819.279798,0.007782,-0.008820,-1.064117,0.009838,0.009355,0.001968,0.999950,0.002060,-0.009837,-0.001968,0.999954,0.009355,0.009856,-0.009335,0.999908,0.009837,-0.009355,-0.999908,-0.001003,-0.003416,-0.057343,-0.002577,0.001388,0.003698,346.235535,350.698334,-1.000000,0.000000,0.000000
482148819.290146,0.010712,-0.006897,-1.064087,0.009749,0.009343,0.002017,0.999950,0.002108,-0.009748,-0.002017,0.999954,0.009343,0.009768,-0.009323,0.999909,0.009748,-0.009343,-0.999909,0.000002,0.000524,-0.060287,0.006055,0.001447,0.003738,346.235535,350.698334,-1.000000,0.000000,0.000000
482148819.300865,0.011688,-0.006927,-1.064087,0.009749,0.009343,0.002017,0.999950,0.002108,-0.009748,-0.002017,0.999954,0.009343,0.009768,-0.009323,0.999909,0.009748,-0.009343,-0.999909,0.000002,0.000524,-0.060287,0.006055,0.001447,0.003738,346.235535,350.698334,-1.000000,0.000000,0.000000
482148819.310151,0.006851,-0.009811,-1.066086,0.009722,0.009405,0.002059,0.999950,0.002151,-0.009722,-0.002059,0.999954,0.009405,0.009741,-0.009385,0.999909,0.009722,-0.009405,-0.999909,-0.001940,0.000586,-0.064209,0.002350,0.001430,0.004952,346.235535,350.698334,-1.000000,0.000000,0.000000
482148819.319236,0.008896,-0.012833,-1.066071,0.009761,0.009294,0.002018,0.999950,0.002109,-0.009760,-0.002018,0.999955,0.009294,0.009779,-0.009274,0.999909,0.009760,-0.009294,-0.999909,0.000952,0.002397,-0.064178,-0.002564,0.003652,-0.001222,346.235535,350.698334,-1.000000,0.000000,0.000000
482148819.331286,0.012650,-0.004944,-1.064072,0.009758,0.009252,0.002054,0.999950,0.002144,-0.009757,-0.002054,0.999955,0.009252,0.009777,-0.009232,0.999910,0.009757,-0.009252,-0.999910,0.001931,0.002325,-0.064177,0.007288,-0.002020,0.002507,346.236237,350.699036,-1.000000,0.000000,0.000000
482148819.341195,0.012650,-0.004944,-1.064072,0.009758,0.009252,0.002054,0.999950,0.002144,-0.009757,-0.002054,0.999955,0.009252,0.009777,-0.009232,0.999910,0.009757,-0.009252,-0.999910,0.001931,0.002325,-0.064177,0.007288,-0.002020,0.002507,346.236237,350.699036,-1.000000,0.000000,0.000000
482148819.349751,0.009811,-0.009888,-1.067062,0.009666,0.009303,0.002109,0.999951,0.002199,-0.009665,-0.002109,0.999955,0.009303,0.009685,-0.009282,0.999910,0.009665,-0.009303,-0.999910,-0.000769,-0.003529,-0.066161,-0.000127,-0.002033,0.007397,346.236237,350.699036,-1.000000,0.000000,0.000000
482148819.359967,0.009705,-0.006882,-1.064102,0.009716,0.009214,0.002168,0.999950,0.002258,-0.009715,-0.002168,0.999955,0.009213,0.009735,-0.009192,0.999910,0.009715,-0.009213,-0.999910,0.002934,0.004270,-0.064161,-0.002595,0.001415,0.007391,346.236237,350.699036,-1.000000,0.000000,0.000000
482148819.369999,0.014786,-0.010925,-1.064072,0.009716,0.009214,0.002168,0.999950,0.002258,-0.009715,-0.002168,0.999955,0.009213,0.009735,-0.009192,0.999910,0.009715,-0.009213,-0.999910,0.002934,0.004270,-0.064161,-0.002595,0.001415,0.007391,346.236237,350.699036,-1.000000,0.000000,0.000000
482148819.379981,0.009720,-0.007828,-1.060196,0.009721,0.009189,0.002187,0.999950,0.002276,-0.009721,-0.002187,0.999955,0.009189,0.009741,-0.009167,0.999911,0.009721,-0.009189,-0.999911,0.000091,-0.000699,-0.067152,-0.003820,0.002540,0.004925,346.236572,350.699371,-1.000000,0.000000,0.000000
482148819.390127,0.014801,-0.011932,-1.064072,0.009718,0.009219,0.002133,0.999950,0.002222,-0.009717,-0.002133,0.999955,0.009219,0.009737,-0.009198,0.999910,0.009717,-0.009219,-0.999910,-0.000013,0.002337,-0.064192,0.007306,-0.000919,-0.003647,346.236572,350.699371,-1.000000,0.000000,0.000000
482148819.400146,0.009781,-0.008865,-1.066071,0.009718,0.009219,0.002133,0.999950,0.002222,-0.009717,-0.002133,0.999955,0.009219,0.009737,-0.009198,0.999910,0.009717,-0.009219,-0.999910,-0.000013,0.002337,-0.064192,0.007306,-0.000919,-0.003647,346.236572,350.699371,-1.000000,0.000000,0.000000
482148819.409823,0.007828,-0.010803,-1.063126,0.009874,0.009268,0.002258,0.999949,0.002349,-0.009874,-0.002258,0.999955,0.009267,0.009895,-0.009245,0.999908,0.009874,-0.009267,-0.999908,-0.000154,0.001440,-0.060288,0.004812,0.003757,0.004967,346.236572,350.699371,-1.000000,0.000000,0.000000
482148819.420012,0.007828,-0.010803,-1.063126,0.009970,0.009310,0.002269,0.999947,0.002362,-0.009969,-0.002269,0.999954,0.009309,0.009991,-0.009286,0.999907,0.009969,-0.009309,-0.999907,0.004832,-0.002623,-0.064165,0.001128,0.002536,0.000023,346.236572,350.699371,-1.000000,0.000000,0.000000
482148819.430158,0.009918,-0.013855,-1.067062,0.009970,0.009310,0.002269,0.999947,0.002362,-0.009969,-0.002269,0.999954,0.009309,0.009991,-0.009286,0.999907,0.009969,-0.009309,-0.999907,0.004832,-0.002623,-0.064165,0.001128,0.002536,0.000023,346.236572,350.699371,-1.000000,0.000000,0.000000
482148819.440640,0.009918,-0.013855,-1.067062,0.009914,0.009264,0.002271,0.999948,0.002362,-0.009913,-0.002270,0.999955,0.009264,0.009934,-0.009241,0.999908,0.009913,-0.009264,-0.999908,-0.002085,-0.001539,-0.063218,0.002367,-0.006716,-0.002448,346.236603,350.699402,-1.000000,0.000000,0.000000
482148819.451537,0.011795,-0.009933,-1.067047,0.009840,0.009345,0.002259,0.999949,0.002351,-0.009839,-0.002259,0.999954,0.009345,0.009861,-0.009322,0.999908,0.009839,-0.009345,-0.999908,-0.002012,-0.001458,-0.063218,0.001128,-0.000931,0.000018,346.236603,350.699402,-1.000000,0.000000,0.000000
482148819.459959,0.011673,-0.008820,-1.053329,0.009840,0.009345,0.002259,0.999949,0.002351,-0.009839,-0.002259,0.999954,0.009345,0.009861,-0.009322,0.999908,0.009839,-0.009345,-0.999908,-0.002012,-0.001458,-0.063218,0.001128,-0.000931,0.000018,346.236603,350.699402,-1.000000,0.000000,0.000000
482148819.469357,0.005768,-0.006805,-1.063126,0.009878,0.009491,0.002283,0.999948,0.002376,-0.009878,-0.002283,0.999952,0.009491,0.009900,-0.009468,0.999906,0.009878,-0.009491,-0.999906,0.000040,-0.004364,-0.067156,0.008506,-0.000816,0.007438,346.236603,350.699402,-1.000000,0.000000,0.000000
482148819.479969,0.009811,-0.011826,-1.062164,0.009909,0.009523,0.002306,0.999948,0.002401,-0.009908,-0.002306,0.999952,0.009522,0.009931,-0.009499,0.999906,0.009908,-0.009522,-0.999906,0.001887,-0.000411,-0.067142,-0.000107,0.001381,0.001247,346.236603,350.699402,-1.000000,0.000000,0.000000
482148819.492569,0.011780,-0.010864,-1.061157,0.009909,0.009523,0.002306,0.999948,0.002401,-0.009908,-0.002306,0.999952,0.009522,0.009931,-0.009499,0.999906,0.009908,-0.009522,-0.999906,0.001887,-0.000411,-0.067142,-0.000107,0.001381,0.001247,346.235565,350.698364,-1.000000,0.000000,0.000000
482148819.499740,0.008835,-0.010818,-1.063126,0.009882,0.009510,0.002319,0.999948,0.002413,-0.009881,-0.002319,0.999952,0.009510,0.009904,-0.009487,0.999906,0.009881,-0.009510,-0.999906,-0.004114,0.002705,-0.063220,0.009761,0.002593,0.000063,346.235565,350.698364,-1.000000,0.000000,0.000000
482148819.510020,0.014816,-0.010956,-1.067017,0.009888,0.009529,0.002391,0.999948,0.002485,-0.009887,-0.002391,0.999952,0.009529,0.009911,-0.009505,0.999906,0.009887,-0.009529,-0.999906,-0.000076,-0.002297,-0.062259,-0.001370,0.000288,0.009857,346.235565,350.698364,-1.000000,0.000000,0.000000
482148819.520703,0.007019,-0.015793,-1.067078,0.009951,0.009571,0.002428,0.999947,0.002523,-0.009950,-0.002427,0.999951,0.009571,0.009974,-0.009547,0.999905,0.009950,-0.009571,-0.999905,-0.001115,-0.001247,-0.063221,0.004817,0.001434,0.003731,346.235565,350.698364,-1.000000,0.000000,0.000000
482148819.530841,0.011719,-0.008865,-1.059204,0.009951,0.009571,0.002428,0.999947,0.002523,-0.009950,-0.002427,0.999951,0.009571,0.009974,-0.009547,0.999905,0.009950,-0.009571,-0.999905,-0.001115,-0.001247,-0.063221,0.004817,0.001434,0.003731,346.235565,350.698364,-1.000000,0.000000,0.000000
482148819.540246,0.011719,-0.008865,-1.059204,0.009886,0.009594,0.002374,0.999948,0.002468,-0.009885,-0.002373,0.999951,0.009594,0.009908,-0.009570,0.999905,0.009885,-0.009594,-0.999905,-0.001050,-0.001225,-0.063220,0.002401,-0.007957,-0.012298,346.232605,350.695404,-1.000000,0.000000,0.000000
482148819.551082,0.008911,-0.012848,-1.068039,0.009881,0.009686,0.002350,0.999948,0.002445,-0.009880,-0.002350,0.999950,0.009686,0.009903,-0.009662,0.999904,0.009880,-0.009686,-0.999904,-0.002861,-0.006107,-0.067173,-0.003799,0.007116,0.000008,346.232605,350.695404,-1.000000,0.000000,0.000000
482148819.560115,0.008911,-0.012848,-1.068039,0.009881,0.009686,0.002350,0.999948,0.002445,-0.009880,-0.002350,0.999950,0.009686,0.009903,-0.009662,0.999904,0.009880,-0.009686,-0.999904,-0.002861,-0.006107,-0.067173,-0.003799,0.007116,0.000008,346.232605,350.695404,-1.000000,0.000000,0.000000
482148819.569993,0.011932,-0.015884,-1.065079,0.009905,0.009636,0.002368,0.999948,0.002463,-0.009905,-0.002368,0.999951,0.009636,0.009928,-0.009612,0.999905,0.009905,-0.009636,-0.999905,0.001814,0.000771,-0.059300,-0.002572,0.000207,0.001234,346.232605,350.695404,-1.000000,0.000000,0.000000
482148819.580798,0.013626,-0.004959,-1.064072,0.009938,0.009694,0.002463,0.999947,0.002559,-0.009937,-0.002463,0.999950,0.009694,0.009961,-0.009669,0.999904,0.009937,-0.009694,-0.999904,-0.001026,-0.003154,-0.068135,0.002337,-0.000848,0.008640,346.232605,350.695404,-1.000000,0.000000,0.000000
482148819.590161,0.003784,-0.006775,-1.064133,0.009938,0.009694,0.002463,0.999947,0.002559,-0.009937,-0.002463,0.999950,0.009694,0.009961,-0.009669,0.999904,0.009937,-0.009694,-0.999904,-0.001026,-0.003154,-0.068135,0.002337,-0.000848,0.008640,346.230530,350.693329,-1.000000,0.000000,0.000000
482148819.599808,0.005814,-0.009750,-1.059235,0.009908,0.009793,0.002469,0.999948,0.002566,-0.009908,-0.002469,0.999949,0.009793,0.009932,-0.009768,0.999903,0.009908,-0.009793,-0.999903,0.002025,-0.006091,-0.065176,-0.001331,-0.007886,-0.001236,346.230530,350.693329,-1.000000,0.000000,0.000000
482148819.610085,0.011734,-0.008881,-1.061157,0.009808,0.009589,0.002452,0.999949,0.002546,-0.009807,-0.002452,0.999951,0.009589,0.009831,-0.009564,0.999906,0.009807,-0.009589,-0.999906,-0.006023,0.002814,-0.064227,-0.001336,0.001361,0.000010,346.230530,350.693329,-1.000000,0.000000,0.000000
482148819.621181,0.011719,-0.007904,-1.064102,0.009808,0.009589,0.002452,0.999949,0.002546,-0.009807,-0.002452,0.999951,0.009589,0.009831,-0.009564,0.999906,0.009807,-0.009589,-0.999906,-0.006023,0.002814,-0.064227,-0.001336,0.001361,0.000010,346.230530,350.693329,-1.000000,0.000000,0.000000
482148819.629896,0.012695,-0.006943,-1.064072,0.009821,0.009570,0.002446,0.999949,0.002540,-0.009820,-0.002446,0.999951,0.009570,0.009844,-0.009545,0.999906,0.009820,-0.009570,-0.999906,-0.006036,0.002795,-0.064227,0.001150,0.002480,-0.006132,346.230530,350.693329,-1.000000,0.000000,0.000000
482148819.640011,0.012848,-0.011932,-1.067032,0.009756,0.009562,0.002459,0.999949,0.002552,-0.009756,-0.002459,0.999951,0.009562,0.009780,-0.009538,0.999907,0.009756,-0.009562,-0.999907,0.001978,0.000681,-0.061251,0.008538,0.001408,-0.002407,346.230530,350.693329,-1.000000,0.000000,0.000000
482148819.651696,0.012848,-0.011932,-1.067032,0.009756,0.009562,0.002459,0.999949,0.002552,-0.009756,-0.002459,0.999951,0.009562,0.009780,-0.009538,0.999907,0.009756,-0.009562,-0.999907,0.001978,0.000681,-0.061251,0.008538,0.001408,-0.002407,346.227936,350.690735,-1.000000,0.000000,0.000000
482148819.661043,0.011627,-0.004898,-1.060165,0.009755,0.009562,0.002441,0.999949,0.002534,-0.009754,-0.002440,0.999951,0.009562,0.009778,-0.009538,0.999907,0.009754,-0.009562,-0.999907,0.001965,0.001658,-0.064195,0.004815,-0.004339,0.003722,346.227936,350.690735,-1.000000,0.000000,0.000000
482148819.669485,0.009827,-0.011841,-1.063126,0.009839,0.009587,0.002500,0.999948,0.002594,-0.009838,-0.002499,0.999951,0.009587,0.009863,-0.009561,0.999906,0.009838,-0.009587,-0.999906,0.003010,-0.002346,-0.067126,0.001112,0.002576,0.004947,346.227936,350.690735,-1.000000,0.000000,0.000000
482148819.685506,0.011841,-0.012878,-1.064102,0.009890,0.009503,0.002541,0.999948,0.002635,-0.009890,-0.002541,0.999952,0.009503,0.009914,-0.009477,0.999906,0.009890,-0.009503,-0.999906,0.001738,0.004605,-0.060259,0.003580,0.002583,0.003727,346.227936,350.690735,-1.000000,0.000000,0.000000
482148819.689127,0.011841,-0.012878,-1.064102,0.009890,0.009503,0.002541,0.999948,0.002635,-0.009890,-0.002541,0.999952,0.009503,0.009914,-0.009477,0.999906,0.009890,-0.009503,-0.999906,0.001738,0.004605,-0.060259,0.003580,0.002583,0.003727,346.227936,350.690735,-1.000000,0.000000,0.000000
482148819.700386,0.012863,-0.014847,-1.059189,0.009950,0.009550,0.002572,0.999947,0.002667,-0.009949,-0.002572,0.999951,0.009549,0.009974,-0.009523,0.999905,0.009949,-0.009549,-0.999905,-0.000122,-0.002291,-0.063221,-0.000119,0.001402,0.003708,346.227844,350.690643,-1.000000,0.000000,0.000000
482148819.711310,0.004761,-0.006760,-1.060211,0.009751,0.009521,0.002521,0.999949,0.002614,-0.009750,-0.002521,0.999951,0.009521,0.009774,-0.009495,0.999907,0.009750,-0.009521,-0.999907,-0.010925,0.001891,-0.062333,0.001132,0.000184,-0.002326,346.227844,350.690643,-1.000000,0.000000,0.000000
482148819.720005,0.012863,-0.012909,-1.065063,0.009751,0.009521,0.002521,0.999949,0.002614,-0.009750,-0.002521,0.999951,0.009521,0.009774,-0.009495,0.999907,0.009750,-0.009521,-0.999907,-0.010925,0.001891,-0.062333,0.001132,0.000184,-0.002326,346.227844,350.690643,-1.000000,0.000000,0.000000
482148819.729972,0.016876,-0.015945,-1.062103,0.009786,0.009539,0.002482,0.999949,0.002575,-0.009785,-0.002481,0.999951,0.009539,0.009809,-0.009514,0.999907,0.009785,-0.009539,-0.999907,0.003078,-0.005308,-0.059282,-0.011208,-0.006809,0.000069,346.227844,350.690643,-1.000000,0.000000,0.000000
482148819.741068,0.006805,-0.006866,-1.069992,0.009686,0.009483,0.002484,0.999950,0.002576,-0.009685,-0.002484,0.999952,0.009483,0.009709,-0.009458,0.999908,0.009685,-0.009483,-0.999908,-0.004924,0.002723,-0.060303,0.003593,0.000222,0.000147,346.227844,350.690643,-1.000000,0.000000,0.000000
482148819.751353,0.011673,-0.006912,-1.061142,0.009686,0.009483,0.002484,0.999950,0.002576,-0.009685,-0.002484,0.999952,0.009483,0.009709,-0.009458,0.999908,0.009685,-0.009483,-0.999908,-0.004924,0.002723,-0.060303,0.003593,0.000222,0.000147,346.228577,350.691376,-1.000000,0.000000,0.000000
482148819.759635,0.011673,-0.006912,-1.061142,0.009809,0.009712,0.002508,0.999949,0.002603,-0.009808,-0.002508,0.999950,0.009712,0.009833,-0.009687,0.999905,0.009808,-0.009712,-0.999905,0.007068,-0.006233,-0.062199,0.001121,-0.000926,0.002596,346.228577,350.691376,-1.000000,0.000000,0.000000
482148819.769740,0.014618,-0.003036,-1.067978,0.009740,0.009608,0.002558,0.999949,0.002652,-0.009739,-0.002558,0.999951,0.009608,0.009764,-0.009582,0.999906,0.009739,-0.009608,-0.999906,-0.002934,0.002741,-0.070086,-0.002592,-0.000922,0.006272,346.228577,350.691376,-1.000000,0.000000,0.000000
482148819.780139,0.010712,-0.006897,-1.064087,0.009740,0.009608,0.002558,0.999949,0.002652,-0.009739,-0.002558,0.999951,0.009608,0.009764,-0.009582,0.999906,0.009739,-0.009608,-0.999906,-0.002934,0.002741,-0.070086,-0.002592,-0.000922,0.006272,346.228577,350.691376,-1.000000,0.000000,0.000000
482148819.790290,0.007828,-0.010803,-1.063126,0.009773,0.009577,0.002638,0.999949,0.002732,-0.009773,-0.002638,0.999951,0.009576,0.009798,-0.009550,0.999906,0.009773,-0.009576,-0.999906,0.001900,0.002664,-0.061236,0.003597,-0.000940,-0.001086,346.228577,350.691376,-1.000000,0.000000,0.000000
482148819.800048,0.008881,-0.011856,-1.068039,0.009805,0.009453,0.002645,0.999948,0.002737,-0.009804,-0.002645,0.999952,0.009453,0.009830,-0.009426,0.999907,0.009804,-0.009453,-0.999907,0.004813,0.006416,-0.068071,0.003590,-0.004393,0.000140,346.229675,350.692474,-1.000000,0.000000,0.000000
482148819.809993,-0.000137,-0.008636,-1.060257,0.009805,0.009453,0.002645,0.999948,0.002737,-0.009804,-0.002645,0.999952,0.009453,0.009830,-0.009426,0.999907,0.009804,-0.009453,-0.999907,0.004813,0.006416,-0.068071,0.003590,-0.004393,0.000140,346.229675,350.692474,-1.000000,0.000000,0.000000
482148819.819888,0.018661,-0.008011,-1.061096,0.009718,0.009421,0.002695,0.999949,0.002787,-0.009717,-0.002695,0.999952,0.009421,0.009743,-0.009394,0.999908,0.009717,-0.009421,-0.999908,-0.001889,-0.001383,-0.063217,-0.005052,-0.000970,0.002568,346.229675,350.692474,-1.000000,0.000000,0.000000
482148819.830299,0.019760,-0.012039,-1.063049,0.009665,0.009415,0.002679,0.999949,0.002770,-0.009664,-0.002679,0.999952,0.009415,0.009690,-0.009389,0.999909,0.009664,-0.009415,-0.999909,-0.000784,-0.002441,-0.068130,-0.003807,-0.006767,-0.001129,346.229675,350.692474,-1.000000,0.000000,0.000000
482148819.839256,0.007858,-0.010834,-1.067062,0.009665,0.009415,0.002679,0.999949,0.002770,-0.009664,-0.002679,0.999952,0.009415,0.009690,-0.009389,0.999909,0.009664,-0.009415,-0.999909,-0.000784,-0.002441,-0.068130,-0.003807,-0.006767,-0.001129,346.229675,350.692474,-1.000000,0.000000,0.000000
482148819.849757,0.005798,-0.007782,-1.063141,0.009597,0.009407,0.002652,0.999950,0.002742,-0.009596,-0.002652,0.999952,0.009407,0.009622,-0.009381,0.999910,0.009596,-0.009407,-0.999910,0.009065,0.001396,-0.061186,0.001122,-0.002103,0.000132,346.230530,350.693329,-1.000000,0.000000,0.000000
482148819.860222,0.005798,-0.007782,-1.063141,0.009730,0.009436,0.002633,0.999949,0.002725,-0.009729,-0.002633,0.999952,0.009436,0.009755,-0.009410,0.999908,0.009729,-0.009436,-0.999908,0.010031,-0.002604,-0.063141,-0.001337,-0.004448,-0.002345,346.230530,350.693329,-1.000000,0.000000,0.000000
482148819.871356,0.014694,-0.009888,-1.055252,0.009678,0.009500,0.002648,0.999949,0.002740,-0.009677,-0.002648,0.999951,0.009500,0.009703,-0.009474,0.999908,0.009677,-0.009500,-0.999908,-0.001819,-0.001334,-0.067154,-0.003809,0.002484,0.000117,346.230530,350.693329,-1.000000,0.000000,0.000000
482148819.879376,0.014694,-0.009888,-1.055252,0.009678,0.009500,0.002648,0.999949,0.002740,-0.009677,-0.002648,0.999951,0.009500,0.009703,-0.009474,0.999908,0.009677,-0.009500,-0.999908,-0.001819,-0.001334,-0.067154,-0.003809,0.002484,0.000117,346.230530,350.693329,-1.000000,0.000000,0.000000
482148819.889933,-0.004135,-0.007568,-1.060287,0.009611,0.009470,0.002692,0.999950,0.002783,-0.009610,-0.002692,0.999952,0.009470,0.009636,-0.009443,0.999909,0.009610,-0.009470,-0.999909,-0.003812,0.001688,-0.063232,0.002341,0.003723,0.005071,346.230530,350.693329,-1.000000,0.000000,0.000000
482148819.899946,0.003845,-0.009735,-1.062195,0.009820,0.009445,0.002682,0.999948,0.002774,-0.009820,-0.002681,0.999952,0.009445,0.009845,-0.009418,0.999907,0.009820,-0.009445,-0.999907,0.004875,-0.000443,-0.055345,0.001132,0.002499,-0.002323,346.230530,350.693329,-1.000000,0.000000,0.000000
482148819.909925,0.006851,-0.008820,-1.068054,0.009820,0.009445,0.002682,0.999948,0.002774,-0.009820,-0.002681,0.999952,0.009445,0.009845,-0.009418,0.999907,0.009820,-0.009445,-0.999907,0.004875,-0.000443,-0.055345,0.001132,0.002499,-0.002323,346.229919,350.692719,-1.000000,0.000000,0.000000
482148819.920174,0.005859,-0.010727,-1.060211,0.009543,0.009459,0.002691,0.999951,0.002781,-0.009542,-0.002691,0.999952,0.009459,0.009568,-0.009433,0.999910,0.009542,-0.009459,-0.999910,-0.013678,0.001890,-0.060378,0.003580,-0.003220,0.002603,346.229919,350.692719,-1.000000,0.000000,0.000000
482148819.930033,-0.000183,-0.006699,-1.064163,0.009393,0.009470,0.002707,0.999952,0.002796,-0.009393,-0.002707,0.999951,0.009470,0.009419,-0.009444,0.999911,0.009393,-0.009470,-0.999911,-0.002542,0.000650,-0.068143,0.002359,0.001355,-0.001088,346.229919,350.692719,-1.000000,0.000000,0.000000
482148819.939577,-0.009048,-0.009476,-1.061295,0.009393,0.009470,0.002707,0.999952,0.002796,-0.009393,-0.002707,0.999951,0.009470,0.009419,-0.009444,0.999911,0.009393,-0.009470,-0.999911,-0.002542,0.000650,-0.068143,0.002359,0.001355,-0.001088,346.229919,350.692719,-1.000000,0.000000,0.000000
482148819.949945,0.007767,-0.006897,-1.069016,0.009395,0.009427,0.002672,0.999952,0.002761,-0.009394,-0.002672,0.999952,0.009427,0.009420,-0.009401,0.999911,0.009394,-0.009427,-0.999911,-0.002543,0.000607,-0.068143,-0.006263,-0.001048,-0.004824,346.229919,350.692719,-1.000000,0.000000,0.000000
482148819.961633,0.003769,-0.006760,-1.061188,0.009087,0.009331,0.002713,0.999955,0.002798,-0.009086,-0.002713,0.999953,0.009331,0.009112,-0.009306,0.999915,0.009086,-0.009331,-0.999915,-0.009269,0.002632,-0.064248,-0.001354,-0.002110,0.002582,346.229919,350.692719,-1.000000,0.000000,0.000000
482148819.972944,0.003769,-0.006760,-1.061188,0.009087,0.009331,0.002713,0.999955,0.002798,-0.009086,-0.002713,0.999953,0.009331,0.009112,-0.009306,0.999915,0.009086,-0.009331,-0.999915,-0.009269,0.002632,-0.064248,-0.001354,-0.002110,0.002582,346.230988,350.693787,-1.000000,0.000000,0.000000
482148819.979533,0.009949,-0.015839,-1.066071,0.008725,0.009292,0.002760,0.999958,0.002841,-0.008725,-0.002760,0.999953,0.009292,0.008751,-0.009268,0.999919,0.008725,-0.009292,-0.999919,-0.017773,-0.000183,-0.061376,-0.003826,-0.004433,0.003799,346.230988,350.693787,-1.000000,0.000000,0.000000
482148819.989583,0.021774,-0.011108,-1.069901,0.008585,0.009246,0.002854,0.999959,0.002933,-0.008585,-0.002854,0.999953,0.009246,0.008612,-0.009221,0.999920,0.008585,-0.009246,-0.999920,-0.004816,0.002486,-0.061267,-0.001370,-0.002083,0.007586,346.230988,350.693787,-1.000000,0.000000,0.000000
482148820.000961,-0.004120,-0.009552,-1.057343,0.008585,0.009246,0.002854,0.999959,0.002933,-0.008585,-0.002854,0.999953,0.009246,0.008612,-0.009221,0.999920,0.008585,-0.009246,-0.999920,-0.004816,0.002486,-0.061267,-0.001370,-0.002083,0.007586,346.230988,350.693787,-1.000000,0.000000,0.000000
482148820.010001,0.000946,-0.010712,-1.069092,0.008529,0.009333,0.002826,0.999959,0.002906,-0.008528,-0.002826,0.999952,0.009333,0.008555,-0.009309,0.999920,0.008528,-0.009333,-0.999920,0.001420,-0.006505,-0.066150,-0.002559,-0.007980,-0.005970,346.229675,350.692474,-1.000000,0.000000,0.000000
