Timestamp,Accel_X,Accel_Y,Accel_Z,Roll,Pitch,Yaw,RM11,RM12,RM13,RM21,RM22,RM23,RM31,RM32,RM33,GravAcc_X,GravAcc_Y,GravAcc_Z,UserAcc_X,UserAcc_Y,UserAcc_Z,RotRate_X,RotRate_Y,RotRate_Z,MagHeading,TrueHeading,HeadingAccuracy,Course,Speed
482149740.038452,0.007660,-0.004837,-1.062149,0.009638,0.009520,0.002747,0.999950,0.002839,-0.009638,-0.002747,0.999951,0.009520,0.009664,-0.009493,0.999908,0.009638,-0.009520,-0.999908,-0.005808,0.002699,-0.069138,0.001414,-0.000840,0.001286,346.375763,350.838562,-1.000000,0.000000,0.000000
482149740.052072,0.086166,-0.009384,-1.070419,0.009638,0.009520,0.002747,0.999950,0.002839,-0.009638,-0.002747,0.999951,0.009520,0.009664,-0.009493,0.999908,0.009638,-0.009520,-0.999908,-0.005808,0.002699,-0.069138,0.001414,-0.000840,0.001286,346.375763,350.838562,-1.000000,0.000000,0.000000
482149740.072191,0.086166,-0.009384,-1.070419,0.009638,0.009520,0.002747,0.999950,0.002839,-0.009638,-0.002747,0.999951,0.009520,0.009664,-0.009493,0.999908,0.009638,-0.009520,-0.999908,-0.005808,0.002699,-0.069138,0.001414,-0.000840,0.001286,346.375763,350.838562,-1.000000,0.000000,0.000000
482149740.094506,-0.105164,-0.015503,-1.050247,0.009638,0.009520,0.002747,0.999950,0.002839,-0.009638,-0.002747,0.999951,0.009520,0.009664,-0.009493,0.999908,0.009638,-0.009520,-0.999908,-0.005808,0.002699,-0.069138,0.001414,-0.000840,0.001286,346.375763,350.838562,-1.000000,0.000000,0.000000
482149740.129519,0.096863,-0.002640,-1.067383,0.009638,0.009520,0.002747,0.999950,0.002839,-0.009638,-0.002747,0.999951,0.009520,0.009664,-0.009493,0.999908,0.009638,-0.009520,-0.999908,-0.005808,0.002699,-0.069138,0.001414,-0.000840,0.001286,346.375763,350.838562,-1.000000,0.000000,0.000000
482149740.138019,0.079071,-0.005249,-1.063599,0.009638,0.009520,0.002747,0.999950,0.002839,-0.009638,-0.002747,0.999951,0.009520,0.009664,-0.009493,0.999908,0.009638,-0.009520,-0.999908,-0.005808,0.002699,-0.069138,0.001414,-0.000840,0.001286,346.375763,350.838562,-1.000000,0.000000,0.000000
482149740.154117,0.117737,-0.005981,-1.061356,0.009638,0.009520,0.002747,0.999950,0.002839,-0.009638,-0.002747,0.999951,0.009520,0.009664,-0.009493,0.999908,0.009638,-0.009520,-0.999908,-0.005808,0.002699,-0.069138,0.001414,-0.000840,0.001286,346.375763,350.838562,-1.000000,0.000000,0.000000
482149740.165637,0.030472,-0.001404,-1.073746,0.009638,0.009520,0.002747,0.999950,0.002839,-0.009638,-0.002747,0.999951,0.009520,0.009664,-0.009493,0.999908,0.009638,-0.009520,-0.999908,-0.005808,0.002699,-0.069138,0.001414,-0.000840,0.001286,346.375763,350.838562,-1.000000,0.000000,0.000000
482149740.178220,-0.068649,-0.005341,-1.059769,0.009638,0.009520,0.002747,0.999950,0.002839,-0.009638,-0.002747,0.999951,0.009520,0.009664,-0.009493,0.999908,0.009638,-0.009520,-0.999908,-0.005808,0.002699,-0.069138,0.001414,-0.000840,0.001286,346.375763,350.838562,-1.000000,0.000000,0.000000
482149740.185606,-0.068649,-0.005341,-1.059769,0.009638,0.009520,0.002747,0.999950,0.002839,-0.009638,-0.002747,0.999951,0.009520,0.009664,-0.009493,0.999908,0.009638,-0.009520,-0.999908,-0.005808,0.002699,-0.069138,0.001414,-0.000840,0.001286,346.375763,350.838562,-1.000000,0.000000,0.000000
482149740.195896,-0.084518,-0.009888,-1.045181,0.009638,0.009520,0.002747,0.999950,0.002839,-0.009638,-0.002747,0.999951,0.009520,0.009664,-0.009493,0.999908,0.009638,-0.009520,-0.999908,-0.005808,0.002699,-0.069138,0.001414,-0.000840,0.001286,346.375763,350.838562,-1.000000,0.000000,0.000000
482149740.210952,0.090118,-0.015274,-1.047852,0.009638,0.009520,0.002747,0.999950,0.002839,-0.009638,-0.002747,0.999951,0.009520,0.009664,-0.009493,0.999908,0.009638,-0.009520,-0.999908,-0.005808,0.002699,-0.069138,0.001414,-0.000840,0.001286,346.375763,350.838562,-1.000000,0.000000,0.000000
482149740.215510,0.090118,-0.015274,-1.047852,0.009638,0.009520,0.002747,0.999950,0.002839,-0.009638,-0.002747,0.999951,0.009520,0.009664,-0.009493,0.999908,0.009638,-0.009520,-0.999908,-0.005808,0.002699,-0.069138,0.001414,-0.000840,0.001286,346.375763,350.838562,-1.000000,0.000000,0.000000
482149740.229712,0.147583,-0.007599,-1.070938,0.009638,0.009520,0.002747,0.999950,0.002839,-0.009638,-0.002747,0.999951,0.009520,0.009664,-0.009493,0.999908,0.009638,-0.009520,-0.999908,-0.005808,0.002699,-0.069138,0.001414,-0.000840,0.001286,346.375763,350.838562,-1.000000,0.000000,0.000000
482149740.235423,0.079224,-0.012161,-1.061661,0.009638,0.009520,0.002747,0.999950,0.002839,-0.009638,-0.002747,0.999951,0.009520,0.009664,-0.009493,0.999908,0.009638,-0.009520,-0.999908,-0.005808,0.002699,-0.069138,0.001414,-0.000840,0.001286,346.375763,350.838562,-1.000000,0.000000,0.000000
482149740.245723,0.093140,-0.010498,-1.070374,0.009638,0.009520,0.002747,0.999950,0.002839,-0.009638,-0.002747,0.999951,0.009520,0.009664,-0.009493,0.999908,0.009638,-0.009520,-0.999908,-0.005808,0.002699,-0.069138,0.001414,-0.000840,0.001286,346.375763,350.838562,-1.000000,0.000000,0.000000
482149740.255950,0.013611,-0.007843,-1.050354,0.009638,0.009520,0.002747,0.999950,0.002839,-0.009638,-0.002747,0.999951,0.009520,0.009664,-0.009493,0.999908,0.009638,-0.009520,-0.999908,-0.005808,0.002699,-0.069138,0.001414,-0.000840,0.001286,346.375763,350.838562,-1.000000,0.000000,0.000000
482149740.265902,-0.069565,-0.009262,-1.057816,0.009638,0.009520,0.002747,0.999950,0.002839,-0.009638,-0.002747,0.999951,0.009520,0.009664,-0.009493,0.999908,0.009638,-0.009520,-0.999908,-0.005808,0.002699,-0.069138,0.001414,-0.000840,0.001286,346.375763,350.838562,-1.000000,0.000000,0.000000
482149740.278362,-0.074646,-0.005188,-1.052933,0.009638,0.009520,0.002747,0.999950,0.002839,-0.009638,-0.002747,0.999951,0.009520,0.009664,-0.009493,0.999908,0.009638,-0.009520,-0.999908,-0.005808,0.002699,-0.069138,0.001414,-0.000840,0.001286,346.375763,350.838562,-1.000000,0.000000,0.000000
482149740.285561,-0.074646,-0.005188,-1.052933,0.009638,0.009520,0.002747,0.999950,0.002839,-0.009638,-0.002747,0.999951,0.009520,0.009664,-0.009493,0.999908,0.009638,-0.009520,-0.999908,-0.005808,0.002699,-0.069138,0.001414,-0.000840,0.001286,346.375763,350.838562,-1.000000,0.000000,0.000000
482149740.294979,-0.078217,-0.012253,-1.082397,0.009638,0.009520,0.002747,0.999950,0.002839,-0.009638,-0.002747,0.999951,0.009520,0.009664,-0.009493,0.999908,0.009638,-0.009520,-0.999908,-0.005808,0.002699,-0.069138,0.001414,-0.000840,0.001286,346.375763,350.838562,-1.000000,0.000000,0.000000
482149740.305904,-0.049744,-0.011597,-1.049850,0.009638,0.009520,0.002747,0.999950,0.002839,-0.009638,-0.002747,0.999951,0.009520,0.009664,-0.009493,0.999908,0.009638,-0.009520,-0.999908,-0.005808,0.002699,-0.069138,0.001414,-0.000840,0.001286,346.375763,350.838562,-1.000000,0.000000,0.000000
482149740.315833,0.071289,-0.009109,-1.071503,0.009638,0.009520,0.002747,0.999950,0.002839,-0.009638,-0.002747,0.999951,0.009520,0.009664,-0.009493,0.999908,0.009638,-0.009520,-0.999908,-0.005808,0.002699,-0.069138,0.001414,-0.000840,0.001286,346.375763,350.838562,-1.000000,0.000000,0.000000
482149740.326654,0.171371,-0.011902,-1.053146,0.009638,0.009520,0.002747,0.999950,0.002839,-0.009638,-0.002747,0.999951,0.009520,0.009664,-0.009493,0.999908,0.009638,-0.009520,-0.999908,-0.005808,0.002699,-0.069138,0.001414,-0.000840,0.001286,346.375763,350.838562,-1.000000,0.000000,0.000000
482149740.335225,0.094131,-0.006683,-1.086029,0.009638,0.009520,0.002747,0.999950,0.002839,-0.009638,-0.002747,0.999951,0.009520,0.009664,-0.009493,0.999908,0.009638,-0.009520,-0.999908,-0.005808,0.002699,-0.069138,0.001414,-0.000840,0.001286,346.375763,350.838562,-1.000000,0.000000,0.000000
482149740.345929,0.095963,-0.010422,-1.050751,0.009638,0.009520,0.002747,0.999950,0.002839,-0.009638,-0.002747,0.999951,0.009520,0.009664,-0.009493,0.999908,0.009638,-0.009520,-0.999908,-0.005808,0.002699,-0.069138,0.001414,-0.000840,0.001286,346.375763,350.838562,-1.000000,0.000000,0.000000
482149740.355930,0.070282,-0.014893,-1.047989,0.009638,0.009520,0.002747,0.999950,0.002839,-0.009638,-0.002747,0.999951,0.009520,0.009664,-0.009493,0.999908,0.009638,-0.009520,-0.999908,-0.005808,0.002699,-0.069138,0.001414,-0.000840,0.001286,346.375763,350.838562,-1.000000,0.000000,0.000000
482149740.366191,-0.121902,-0.014297,-1.069977,0.009638,0.009520,0.002747,0.999950,0.002839,-0.009638,-0.002747,0.999951,0.009520,0.009664,-0.009493,0.999908,0.009638,-0.009520,-0.999908,-0.005808,0.002699,-0.069138,0.001414,-0.000840,0.001286,346.375763,350.838562,-1.000000,0.000000,0.000000
482149740.379062,-0.047501,-0.020599,-1.054733,0.009638,0.009520,0.002747,0.999950,0.002839,-0.009638,-0.002747,0.999951,0.009520,0.009664,-0.009493,0.999908,0.009638,-0.009520,-0.999908,-0.005808,0.002699,-0.069138,0.001414,-0.000840,0.001286,346.375763,350.838562,-1.000000,0.000000,0.000000
482149740.386677,-0.082413,-0.009064,-1.063782,0.009638,0.009520,0.002747,0.999950,0.002839,-0.009638,-0.002747,0.999951,0.009520,0.009664,-0.009493,0.999908,0.009638,-0.009520,-0.999908,-0.005808,0.002699,-0.069138,0.001414,-0.000840,0.001286,346.375763,350.838562,-1.000000,0.000000,0.000000
482149740.396057,-0.082413,-0.009064,-1.063782,0.009638,0.009520,0.002747,0.999950,0.002839,-0.009638,-0.002747,0.999951,0.009520,0.009664,-0.009493,0.999908,0.009638,-0.009520,-0.999908,-0.005808,0.002699,-0.069138,0.001414,-0.000840,0.001286,346.375763,350.838562,-1.000000,0.000000,0.000000
482149740.406130,-0.085175,-0.021851,-1.050110,0.009638,0.009520,0.002747,0.999950,0.002839,-0.009638,-0.002747,0.999951,0.009520,0.009664,-0.009493,0.999908,0.009638,-0.009520,-0.999908,-0.005808,0.002699,-0.069138,0.001414,-0.000840,0.001286,346.375763,350.838562,-1.000000,0.000000,0.000000
482149740.415045,0.053741,-0.015854,-1.091232,0.009638,0.009520,0.002747,0.999950,0.002839,-0.009638,-0.002747,0.999951,0.009520,0.009664,-0.009493,0.999908,0.009638,-0.009520,-0.999908,-0.005808,0.002699,-0.069138,0.001414,-0.000840,0.001286,346.375763,350.838562,-1.000000,0.000000,0.000000
482149740.429879,0.074371,-0.013153,-1.072464,0.009638,0.009520,0.002747,0.999950,0.002839,-0.009638,-0.002747,0.999951,0.009520,0.009664,-0.009493,0.999908,0.009638,-0.009520,-0.999908,-0.005808,0.002699,-0.069138,0.001414,-0.000840,0.001286,346.375763,350.838562,-1.000000,0.000000,0.000000
482149740.435703,0.074371,-0.013153,-1.072464,0.009638,0.009520,0.002747,0.999950,0.002839,-0.009638,-0.002747,0.999951,0.009520,0.009664,-0.009493,0.999908,0.009638,-0.009520,-0.999908,-0.005808,0.002699,-0.069138,0.001414,-0.000840,0.001286,346.375763,350.838562,-1.000000,0.000000,0.000000
482149740.445813,0.089005,-0.005447,-1.064499,0.009638,0.009520,0.002747,0.999950,0.002839,-0.009638,-0.002747,0.999951,0.009520,0.009664,-0.009493,0.999908,0.009638,-0.009520,-0.999908,-0.005808,0.002699,-0.069138,0.001414,-0.000840,0.001286,346.375763,350.838562,-1.000000,0.000000,0.000000
482149740.456241,-0.002930,-0.012665,-1.074997,0.009638,0.009520,0.002747,0.999950,0.002839,-0.009638,-0.002747,0.999951,0.009520,0.009664,-0.009493,0.999908,0.009638,-0.009520,-0.999908,-0.005808,0.002699,-0.069138,0.001414,-0.000840,0.001286,346.375763,350.838562,-1.000000,0.000000,0.000000
482149740.465117,-0.102234,-0.009659,-1.061005,0.009638,0.009520,0.002747,0.999950,0.002839,-0.009638,-0.002747,0.999951,0.009520,0.009664,-0.009493,0.999908,0.009638,-0.009520,-0.999908,-0.005808,0.002699,-0.069138,0.001414,-0.000840,0.001286,346.375763,350.838562,-1.000000,0.000000,0.000000
482149740.478486,-0.041626,-0.020645,-1.044876,0.009638,0.009520,0.002747,0.999950,0.002839,-0.009638,-0.002747,0.999951,0.009520,0.009664,-0.009493,0.999908,0.009638,-0.009520,-0.999908,-0.005808,0.002699,-0.069138,0.001414,-0.000840,0.001286,346.375763,350.838562,-1.000000,0.000000,0.000000
482149740.487008,-0.041626,-0.020645,-1.044876,0.009638,0.009520,0.002747,0.999950,0.002839,-0.009638,-0.002747,0.999951,0.009520,0.009664,-0.009493,0.999908,0.009638,-0.009520,-0.999908,-0.005808,0.002699,-0.069138,0.001414,-0.000840,0.001286,346.375763,350.838562,-1.000000,0.000000,0.000000
482149740.496094,-0.052582,-0.010681,-1.070435,0.009638,0.009520,0.002747,0.999950,0.002839,-0.009638,-0.002747,0.999951,0.009520,0.009664,-0.009493,0.999908,0.009638,-0.009520,-0.999908,-0.005808,0.002699,-0.069138,0.001414,-0.000840,0.001286,346.375763,350.838562,-1.000000,0.000000,0.000000
482149740.506171,-0.078354,-0.017014,-1.050049,0.009638,0.009520,0.002747,0.999950,0.002839,-0.009638,-0.002747,0.999951,0.009520,0.009664,-0.009493,0.999908,0.009638,-0.009520,-0.999908,-0.005808,0.002699,-0.069138,0.001414,-0.000840,0.001286,346.375763,350.838562,-1.000000,0.000000,0.000000
482149740.515014,0.018875,-0.015015,-1.066986,0.009638,0.009520,0.002747,0.999950,0.002839,-0.009638,-0.002747,0.999951,0.009520,0.009664,-0.009493,0.999908,0.009638,-0.009520,-0.999908,-0.005808,0.002699,-0.069138,0.001414,-0.000840,0.001286,346.375763,350.838562,-1.000000,0.000000,0.000000
482149740.526225,0.140900,-0.021301,-1.060226,0.009638,0.009520,0.002747,0.999950,0.002839,-0.009638,-0.002747,0.999951,0.009520,0.009664,-0.009493,0.999908,0.009638,-0.009520,-0.999908,-0.005808,0.002699,-0.069138,0.001414,-0.000840,0.001286,346.375763,350.838562,-1.000000,0.000000,0.000000
482149740.536053,0.071259,-0.016846,-1.039169,0.009638,0.009520,0.002747,0.999950,0.002839,-0.009638,-0.002747,0.999951,0.009520,0.009664,-0.009493,0.999908,0.009638,-0.009520,-0.999908,-0.005808,0.002699,-0.069138,0.001414,-0.000840,0.001286,346.375763,350.838562,-1.000000,0.000000,0.000000
482149740.546152,0.060242,-0.001999,-1.075485,0.009638,0.009520,0.002747,0.999950,0.002839,-0.009638,-0.002747,0.999951,0.009520,0.009664,-0.009493,0.999908,0.009638,-0.009520,-0.999908,-0.005808,0.002699,-0.069138,0.001414,-0.000840,0.001286,346.375763,350.838562,-1.000000,0.000000,0.000000
482149740.556149,-0.019897,-0.017105,-1.044724,0.009638,0.009520,0.002747,0.999950,0.002839,-0.009638,-0.002747,0.999951,0.009520,0.009664,-0.009493,0.999908,0.009638,-0.009520,-0.999908,-0.005808,0.002699,-0.069138,0.001414,-0.000840,0.001286,346.375763,350.838562,-1.000000,0.000000,0.000000
482149740.565808,-0.115967,-0.010529,-1.080704,0.009638,0.009520,0.002747,0.999950,0.002839,-0.009638,-0.002747,0.999951,0.009520,0.009664,-0.009493,0.999908,0.009638,-0.009520,-0.999908,-0.005808,0.002699,-0.069138,0.001414,-0.000840,0.001286,346.375763,350.838562,-1.000000,0.000000,0.000000
482149740.576131,-0.156754,-0.011566,-1.058441,0.009638,0.009520,0.002747,0.999950,0.002839,-0.009638,-0.002747,0.999951,0.009520,0.009664,-0.009493,0.999908,0.009638,-0.009520,-0.999908,-0.005808,0.002699,-0.069138,0.001414,-0.000840,0.001286,346.375763,350.838562,-1.000000,0.000000,0.000000
482149740.587090,-0.070343,-0.006531,-1.095078,0.009638,0.009520,0.002747,0.999950,0.002839,-0.009638,-0.002747,0.999951,0.009520,0.009664,-0.009493,0.999908,0.009638,-0.009520,-0.999908,-0.005808,0.002699,-0.069138,0.001414,-0.000840,0.001286,346.375763,350.838562,-1.000000,0.000000,0.000000
482149740.595907,-0.070343,-0.006531,-1.095078,0.009638,0.009520,0.002747,0.999950,0.002839,-0.009638,-0.002747,0.999951,0.009520,0.009664,-0.009493,0.999908,0.009638,-0.009520,-0.999908,-0.005808,0.002699,-0.069138,0.001414,-0.000840,0.001286,346.375763,350.838562,-1.000000,0.000000,0.000000
482149740.607602,-0.086594,-0.005875,-1.045197,0.009638,0.009520,0.002747,0.999950,0.002839,-0.009638,-0.002747,0.999951,0.009520,0.009664,-0.009493,0.999908,0.009638,-0.009520,-0.999908,-0.005808,0.002699,-0.069138,0.001414,-0.000840,0.001286,346.375763,350.838562,-1.000000,0.000000,0.000000
482149740.618427,0.022644,0.000595,-1.094376,0.009638,0.009520,0.002747,0.999950,0.002839,-0.009638,-0.002747,0.999951,0.009520,0.009664,-0.009493,0.999908,0.009638,-0.009520,-0.999908,-0.005808,0.002699,-0.069138,0.001414,-0.000840,0.001286,346.375763,350.838562,-1.000000,0.000000,0.000000
482149740.626056,0.174225,-0.001205,-1.075653,0.009638,0.009520,0.002747,0.999950,0.002839,-0.009638,-0.002747,0.999951,0.009520,0.009664,-0.009493,0.999908,0.009638,-0.009520,-0.999908,-0.005808,0.002699,-0.069138,0.001414,-0.000840,0.001286,346.375763,350.838562,-1.000000,0.000000,0.000000
482149740.636105,0.126480,-0.011795,-1.016220,0.009638,0.009520,0.002747,0.999950,0.002839,-0.009638,-0.002747,0.999951,0.009520,0.009664,-0.009493,0.999908,0.009638,-0.009520,-0.999908,-0.005808,0.002699,-0.069138,0.001414,-0.000840,0.001286,346.375763,350.838562,-1.000000,0.000000,0.000000
482149740.646179,0.103104,-0.007874,-1.087906,0.009638,0.009520,0.002747,0.999950,0.002839,-0.009638,-0.002747,0.999951,0.009520,0.009664,-0.009493,0.999908,0.009638,-0.009520,-0.999908,-0.005808,0.002699,-0.069138,0.001414,-0.000840,0.001286,346.375763,350.838562,-1.000000,0.000000,0.000000
482149740.656083,0.023514,-0.009964,-1.040497,0.009638,0.009520,0.002747,0.999950,0.002839,-0.009638,-0.002747,0.999951,0.009520,0.009664,-0.009493,0.999908,0.009638,-0.009520,-0.999908,-0.005808,0.002699,-0.069138,0.001414,-0.000840,0.001286,346.375763,350.838562,-1.000000,0.000000,0.000000
482149740.665633,-0.069473,-0.005493,-1.084274,0.009638,0.009520,0.002747,0.999950,0.002839,-0.009638,-0.002747,0.999951,0.009520,0.009664,-0.009493,0.999908,0.009638,-0.009520,-0.999908,-0.005808,0.002699,-0.069138,0.001414,-0.000840,0.001286,346.375763,350.838562,-1.000000,0.000000,0.000000
482149740.676048,-0.160904,-0.005478,-1.051605,0.009638,0.009520,0.002747,0.999950,0.002839,-0.009638,-0.002747,0.999951,0.009520,0.009664,-0.009493,0.999908,0.009638,-0.009520,-0.999908,-0.005808,0.002699,-0.069138,0.001414,-0.000840,0.001286,346.375763,350.838562,-1.000000,0.000000,0.000000
482149740.686561,-0.091461,-0.007797,-1.049149,0.009638,0.009520,0.002747,0.999950,0.002839,-0.009638,-0.002747,0.999951,0.009520,0.009664,-0.009493,0.999908,0.009638,-0.009520,-0.999908,-0.005808,0.002699,-0.069138,0.001414,-0.000840,0.001286,346.375763,350.838562,-1.000000,0.000000,0.000000
482149740.696924,-0.036911,-0.003052,-1.069351,0.009638,0.009520,0.002747,0.999950,0.002839,-0.009638,-0.002747,0.999951,0.009520,0.009664,-0.009493,0.999908,0.009638,-0.009520,-0.999908,-0.005808,0.002699,-0.069138,0.001414,-0.000840,0.001286,346.375763,350.838562,-1.000000,0.000000,0.000000
482149740.705520,-0.036911,-0.003052,-1.069351,0.009638,0.009520,0.002747,0.999950,0.002839,-0.009638,-0.002747,0.999951,0.009520,0.009664,-0.009493,0.999908,0.009638,-0.009520,-0.999908,-0.005808,0.002699,-0.069138,0.001414,-0.000840,0.001286,346.375763,350.838562,-1.000000,0.000000,0.000000
482149740.716090,0.118057,-0.015976,-1.071167,0.009638,0.009520,0.002747,0.999950,0.002839,-0.009638,-0.002747,0.999951,0.009520,0.009664,-0.009493,0.999908,0.009638,-0.009520,-0.999908,-0.005808,0.002699,-0.069138,0.001414,-0.000840,0.001286,346.375763,350.838562,-1.000000,0.000000,0.000000
482149740.726106,0.199020,-0.004593,-1.064682,0.009638,0.009520,0.002747,0.999950,0.002839,-0.009638,-0.002747,0.999951,0.009520,0.009664,-0.009493,0.999908,0.009638,-0.009520,-0.999908,-0.005808,0.002699,-0.069138,0.001414,-0.000840,0.001286,346.375763,350.838562,-1.000000,0.000000,0.000000
482149740.736330,0.137650,-0.006424,-1.070038,0.009638,0.009520,0.002747,0.999950,0.002839,-0.009638,-0.002747,0.999951,0.009520,0.009664,-0.009493,0.999908,0.009638,-0.009520,-0.999908,-0.005808,0.002699,-0.069138,0.001414,-0.000840,0.001286,346.375763,350.838562,-1.000000,0.000000,0.000000
482149740.745436,0.119858,-0.011963,-1.061356,0.009638,0.009520,0.002747,0.999950,0.002839,-0.009638,-0.002747,0.999951,0.009520,0.009664,-0.009493,0.999908,0.009638,-0.009520,-0.999908,-0.005808,0.002699,-0.069138,0.001414,-0.000840,0.001286,346.375763,350.838562,-1.000000,0.000000,0.000000
482149740.755988,0.055313,-0.008698,-1.055954,0.009638,0.009520,0.002747,0.999950,0.002839,-0.009638,-0.002747,0.999951,0.009520,0.009664,-0.009493,0.999908,0.009638,-0.009520,-0.999908,-0.005808,0.002699,-0.069138,0.001414,-0.000840,0.001286,346.375763,350.838562,-1.000000,0.000000,0.000000
482149740.766111,-0.042633,-0.015747,-1.056656,0.009638,0.009520,0.002747,0.999950,0.002839,-0.009638,-0.002747,0.999951,0.009520,0.009664,-0.009493,0.999908,0.009638,-0.009520,-0.999908,-0.005808,0.002699,-0.069138,0.001414,-0.000840,0.001286,346.375763,350.838562,-1.000000,0.000000,0.000000
482149740.776074,-0.139862,-0.013855,-1.055389,0.009638,0.009520,0.002747,0.999950,0.002839,-0.009638,-0.002747,0.999951,0.009520,0.009664,-0.009493,0.999908,0.009638,-0.009520,-0.999908,-0.005808,0.002699,-0.069138,0.001414,-0.000840,0.001286,346.375763,350.838562,-1.000000,0.000000,0.000000
482149740.786427,-0.139862,-0.013855,-1.055389,0.009638,0.009520,0.002747,0.999950,0.002839,-0.009638,-0.002747,0.999951,0.009520,0.009664,-0.009493,0.999908,0.009638,-0.009520,-0.999908,-0.005808,0.002699,-0.069138,0.001414,-0.000840,0.001286,346.375763,350.838562,-1.000000,0.000000,0.000000
482149740.799332,-0.025925,-0.013000,-1.043793,0.009638,0.009520,0.002747,0.999950,0.002839,-0.009638,-0.002747,0.999951,0.009520,0.009664,-0.009493,0.999908,0.009638,-0.009520,-0.999908,-0.005808,0.002699,-0.069138,0.001414,-0.000840,0.001286,346.375763,350.838562,-1.000000,0.000000,0.000000
482149740.805834,-0.025925,-0.013000,-1.043793,0.009638,0.009520,0.002747,0.999950,0.002839,-0.009638,-0.002747,0.999951,0.009520,0.009664,-0.009493,0.999908,0.009638,-0.009520,-0.999908,-0.005808,0.002699,-0.069138,0.001414,-0.000840,0.001286,346.375763,350.838562,-1.000000,0.000000,0.000000
482149740.815264,0.140686,-0.003632,-1.089615,0.080363,0.008777,-0.000285,0.996773,0.000421,-0.080273,0.000285,0.999961,0.008777,0.080274,-0.008771,0.996734,0.080273,-0.008777,-0.996734,-0.220135,-0.005078,-0.058655,0.003931,0.000351,0.002284,346.375763,350.838562,-1.000000,0.000000,0.000000
482149740.826199,0.201187,-0.012543,-1.062729,0.080355,0.008800,-0.000331,0.996773,0.000377,-0.080265,0.000331,0.999961,0.008800,0.080266,-0.008798,0.996735,0.080265,-0.008800,-0.996735,-0.189503,0.002238,-0.067245,-0.000998,0.002615,0.001034,346.375763,350.838562,-1.000000,0.000000,0.000000
482149740.837225,0.156708,-0.008942,-1.093414,0.080355,0.008800,-0.000331,0.996773,0.000377,-0.080265,0.000331,0.999961,0.008800,0.080266,-0.008798,0.996735,0.080265,-0.008800,-0.996735,-0.189503,0.002238,-0.067245,-0.000998,0.002615,0.001034,346.375763,350.838562,-1.000000,0.000000,0.000000
482149740.845877,0.131439,-0.011887,-1.016190,0.080355,0.008797,-0.000268,0.996773,0.000439,-0.080266,0.000268,0.999961,0.008797,0.080266,-0.008790,0.996735,0.080266,-0.008797,-0.996735,0.060420,0.005166,-0.092880,-0.004694,0.000268,-0.000217,346.375763,350.838562,-1.000000,0.000000,0.000000
482149740.855162,0.058411,-0.025360,-1.015747,0.080386,0.008830,-0.000260,0.996771,0.000449,-0.080297,0.000260,0.999961,0.008830,0.080298,-0.008823,0.996732,0.080297,-0.008830,-0.996732,0.120890,-0.003713,-0.065997,0.007639,0.002665,-0.000157,346.375763,350.838562,-1.000000,0.000000,0.000000
482149740.866972,-0.197296,-0.009903,-1.076401,0.080404,0.008929,-0.000284,0.996769,0.000434,-0.080314,0.000284,0.999960,0.008929,0.080315,-0.008923,0.996730,0.080314,-0.008929,-0.996730,0.076393,-0.000012,-0.096685,0.001456,-0.001955,0.004731,346.375763,350.838562,-1.000000,0.000000,0.000000
482149740.877759,-0.123016,-0.011246,-1.063110,0.080404,0.008929,-0.000284,0.996769,0.000434,-0.080314,0.000284,0.999960,0.008929,0.080315,-0.008923,0.996730,0.080314,-0.008929,-0.996730,0.076393,-0.000012,-0.096685,0.001456,-0.001955,0.004731,346.375763,350.838562,-1.000000,0.000000,0.000000
482149740.885325,-0.123016,-0.011246,-1.063110,0.080419,0.008989,-0.000242,0.996768,0.000481,-0.080329,0.000242,0.999960,0.008989,0.080330,-0.008979,0.996728,0.080329,-0.008989,-0.996728,0.051110,-0.002898,-0.019462,0.006386,0.001554,0.005990,346.375763,350.838562,-1.000000,0.000000,0.000000
482149740.896035,-0.058548,-0.013474,-1.059708,0.080408,0.008991,-0.000276,0.996769,0.000447,-0.080318,0.000276,0.999960,0.008991,0.080319,-0.008984,0.996729,0.080318,-0.008991,-0.996729,-0.277614,-0.000912,-0.079672,0.001461,0.004963,0.003511,346.375763,350.838562,-1.000000,0.000000,0.000000
482149740.906034,-0.062408,-0.012512,-1.075424,0.080408,0.008991,-0.000276,0.996769,0.000447,-0.080318,0.000276,0.999960,0.008991,0.080319,-0.008984,0.996729,0.080318,-0.008991,-0.996729,-0.277614,-0.000912,-0.079672,0.001461,0.004963,0.003511,346.375763,350.838562,-1.000000,0.000000,0.000000
482149740.915683,0.094070,-0.010483,-1.062515,0.080411,0.009024,-0.000269,0.996769,0.000457,-0.080321,0.000269,0.999959,0.009024,0.080322,-0.009016,0.996728,0.080321,-0.009024,-0.996728,-0.203338,-0.002222,-0.066382,0.005160,-0.000785,0.003519,346.375763,350.838562,-1.000000,0.000000,0.000000
482149740.925986,0.176498,-0.013153,-1.073700,0.080417,0.009012,-0.000248,0.996768,0.000477,-0.080327,0.000248,0.999959,0.009012,0.080328,-0.009003,0.996728,0.080327,-0.009012,-0.996728,-0.142736,-0.003500,-0.078696,-0.000992,0.008378,-0.000188,346.375763,350.838562,-1.000000,0.000000,0.000000
482149740.935154,0.087158,-0.003616,-1.090973,0.080417,0.009012,-0.000248,0.996768,0.000477,-0.080327,0.000248,0.999959,0.009012,0.080328,-0.009003,0.996728,0.080327,-0.009012,-0.996728,-0.142736,-0.003500,-0.078696,-0.000992,0.008378,-0.000188,346.375763,350.838562,-1.000000,0.000000,0.000000
482149740.945366,0.109909,-0.021454,-1.024185,0.080431,0.009022,-0.000232,0.996767,0.000493,-0.080341,0.000232,0.999959,0.009022,0.080342,-0.009011,0.996727,0.080341,-0.009022,-0.996727,0.013729,-0.001461,-0.065789,0.002702,0.001486,0.001049,346.375763,350.838562,-1.000000,0.000000,0.000000
482149740.956374,0.001740,-0.010513,-1.040649,0.080466,0.009072,-0.000186,0.996765,0.000544,-0.080375,0.000186,0.999959,0.009072,0.080377,-0.009058,0.996723,0.080375,-0.009072,-0.996723,0.006783,0.005456,-0.094250,0.007622,-0.001912,0.004759,346.375763,350.838562,-1.000000,0.000000,0.000000
482149740.966180,-0.122040,-0.003494,-1.086609,0.080466,0.009072,-0.000186,0.996765,0.000544,-0.080375,0.000186,0.999959,0.009072,0.080377,-0.009058,0.996723,0.080375,-0.009072,-0.996723,0.006783,0.005456,-0.094250,0.007622,-0.001912,0.004759,346.375763,350.838562,-1.000000,0.000000,0.000000
482149740.975189,-0.080383,-0.012039,-1.056931,0.080480,0.009085,-0.000207,0.996763,0.000524,-0.080390,0.000207,0.999959,0.009085,0.080391,-0.009072,0.996722,0.080390,-0.009085,-0.996722,0.006769,0.005468,-0.094251,-0.002223,0.003740,-0.001432,346.375763,350.838562,-1.000000,0.000000,0.000000
482149740.986042,-0.072495,-0.006332,-1.072540,0.080481,0.009173,-0.000211,0.996763,0.000527,-0.080391,0.000211,0.999958,0.009173,0.080392,-0.009161,0.996721,0.080391,-0.009173,-0.996721,-0.078651,-0.001340,-0.043928,0.001456,0.001509,0.004736,346.375763,350.838562,-1.000000,0.000000,0.000000
482149740.998379,-0.072495,-0.006332,-1.072540,0.080481,0.009173,-0.000211,0.996763,0.000527,-0.080391,0.000211,0.999958,0.009173,0.080392,-0.009161,0.996721,0.080391,-0.009173,-0.996721,-0.078651,-0.001340,-0.043928,0.001456,0.001509,0.004736,346.375763,350.838562,-1.000000,0.000000,0.000000
482149741.007159,-0.096298,-0.011688,-1.052139,0.080462,0.009228,-0.000163,0.996765,0.000579,-0.080371,0.000163,0.999957,0.009227,0.080373,-0.009211,0.996722,0.080371,-0.009227,-0.996722,-0.202411,0.005733,-0.089887,0.005147,-0.003063,0.007208,346.375763,350.838562,-1.000000,0.000000,0.000000
482149741.016102,0.047409,-0.007629,-1.064804,0.080424,0.009337,-0.000206,0.996768,0.000545,-0.080333,0.000206,0.999956,0.009337,0.080335,-0.009323,0.996724,0.080333,-0.009337,-0.996724,-0.152828,0.003005,-0.075816,0.006394,0.001533,0.003528,346.375763,350.838562,-1.000000,0.000000,0.000000
482149741.027202,0.179413,-0.018967,-1.045242,0.080424,0.009337,-0.000206,0.996768,0.000545,-0.080333,0.000206,0.999956,0.009337,0.080335,-0.009323,0.996724,0.080333,-0.009337,-0.996724,-0.152828,0.003005,-0.075816,0.006394,0.001533,0.003528,346.375763,350.838562,-1.000000,0.000000,0.000000
482149741.044746,0.105011,-0.008789,-1.074203,0.080415,0.009282,-0.000167,0.996769,0.000579,-0.080325,0.000167,0.999957,0.009282,0.080327,-0.009266,0.996726,0.080325,-0.009282,-0.996726,-0.176623,-0.002406,-0.055414,-0.010865,-0.000920,0.000983,346.375763,350.838562,-1.000000,0.000000,0.000000
482149741.055983,-0.040771,-0.013733,-1.047806,0.080466,0.009289,-0.000063,0.996764,0.000683,-0.080375,0.000063,0.999957,0.009289,0.080378,-0.009264,0.996721,0.080375,-0.009289,-0.996721,0.099038,-0.009678,-0.048521,-0.004710,0.000310,0.004706,346.375763,350.838562,-1.000000,0.000000,0.000000
482149741.065973,-0.151733,-0.007828,-1.078995,0.080508,0.009323,-0.000038,0.996761,0.000712,-0.080418,0.000038,0.999957,0.009323,0.080421,-0.009296,0.996718,0.080418,-0.009323,-0.996718,0.098995,-0.009643,-0.048525,0.010103,0.006157,0.001089,346.375763,350.838562,-1.000000,0.000000,0.000000
482149741.075871,-0.156876,-0.009521,-1.048645,0.080538,0.009482,-0.000072,0.996759,0.000691,-0.080447,0.000072,0.999955,0.009482,0.080450,-0.009457,0.996714,0.080447,-0.009482,-0.996714,0.032529,0.001486,-0.084295,0.006418,0.002625,-0.003857,346.375763,350.838562,-1.000000,0.000000,0.000000
482149741.085892,-0.084335,-0.003281,-1.094177,0.080538,0.009482,-0.000072,0.996759,0.000691,-0.080447,0.000072,0.999955,0.009482,0.080450,-0.009457,0.996714,0.080447,-0.009482,-0.996714,0.032529,0.001486,-0.084295,0.006418,0.002625,-0.003857,346.375763,350.838562,-1.000000,0.000000,0.000000
482149741.095796,-0.090439,-0.007874,-1.055038,0.080541,0.009567,-0.000008,0.996758,0.000762,-0.080450,0.000008,0.999954,0.009567,0.080454,-0.009537,0.996713,0.080450,-0.009567,-0.996713,-0.121222,-0.004166,-0.051093,0.006377,0.000420,0.008450,346.375763,350.838562,-1.000000,0.000000,0.000000
482149741.105494,0.040665,-0.013474,-1.070755,0.080587,0.009648,0.000042,0.996755,0.000818,-0.080496,-0.000042,0.999953,0.009648,0.080500,-0.009613,0.996708,0.080496,-0.009648,-0.996708,-0.237372,0.000126,-0.051937,0.003923,0.001526,0.004747,346.375763,350.838562,-1.000000,0.000000,0.000000
482149741.117934,0.171265,-0.011795,-1.039429,0.080595,0.009604,0.000067,0.996754,0.000840,-0.080504,-0.000067,0.999954,0.009604,0.080508,-0.009567,0.996708,0.080504,-0.009604,-0.996708,-0.164839,0.006323,-0.097469,-0.003462,-0.000878,-0.000214,346.375763,350.838562,-1.000000,0.000000,0.000000
482149741.125948,0.171265,-0.011795,-1.039429,0.080595,0.009604,0.000067,0.996754,0.000840,-0.080504,-0.000067,0.999954,0.009604,0.080508,-0.009567,0.996708,0.080504,-0.009604,-0.996708,-0.164839,0.006323,-0.097469,-0.003462,-0.000878,-0.000214,346.375763,350.838562,-1.000000,0.000000,0.000000
482149741.135656,0.194229,-0.007568,-1.076477,0.080624,0.009734,0.000132,0.996751,0.000915,-0.080533,-0.000132,0.999953,0.009734,0.080538,-0.009692,0.996704,0.080533,-0.009734,-0.996704,-0.170972,0.001860,-0.058334,0.010082,0.002745,0.007239,346.375763,350.838562,-1.000000,0.000000,0.000000
482149741.145168,0.141922,-0.015518,-1.082764,0.080628,0.009805,0.000244,0.996751,0.001033,-0.080536,-0.000244,0.999952,0.009805,0.080543,-0.009754,0.996703,0.080536,-0.009805,-0.996703,-0.039872,-0.003668,-0.074052,0.002653,-0.001853,0.015815,346.375763,350.838562,-1.000000,0.000000,0.000000
482149741.156471,0.022614,-0.010040,-1.055191,0.080577,0.009753,0.000281,0.996755,0.001065,-0.080486,-0.000281,0.999952,0.009753,0.080492,-0.009698,0.996708,0.080486,-0.009753,-0.996708,0.113743,0.002184,-0.079769,0.003955,0.000287,-0.005103,346.375763,350.838562,-1.000000,0.000000,0.000000
482149741.165603,-0.067490,-0.010361,-1.065643,0.080577,0.009753,0.000281,0.996755,0.001065,-0.080486,-0.000281,0.999952,0.009753,0.080492,-0.009698,0.996708,0.080486,-0.009753,-0.996708,0.113743,0.002184,-0.079769,0.003955,0.000287,-0.005103,346.375763,350.838562,-1.000000,0.000000,0.000000
482149741.175916,-0.253006,-0.005768,-1.066010,0.080546,0.009758,0.000248,0.996758,0.001033,-0.080455,-0.000248,0.999952,0.009758,0.080462,-0.009707,0.996710,0.080455,-0.009758,-0.996710,0.061467,-0.005760,-0.086053,0.002729,-0.002052,-0.007575,346.375763,350.838562,-1.000000,0.000000,0.000000
482149741.185835,-0.148849,-0.005844,-1.071136,0.080581,0.009870,0.000230,0.996755,0.001024,-0.080490,-0.000230,0.999951,0.009870,0.080496,-0.009819,0.996707,0.080490,-0.009870,-0.996707,-0.147980,-0.000491,-0.068937,0.003928,0.003825,0.003520,346.375763,350.838562,-1.000000,0.000000,0.000000
482149741.195745,-0.125229,-0.008072,-1.040588,0.080581,0.009870,0.000230,0.996755,0.001024,-0.080490,-0.000230,0.999951,0.009870,0.080496,-0.009819,0.996707,0.080490,-0.009870,-0.996707,-0.147980,-0.000491,-0.068937,0.003928,0.003825,0.003520,346.375763,350.838562,-1.000000,0.000000,0.000000
482149741.206262,-0.044632,-0.005020,-1.090942,0.080574,0.009968,0.000226,0.996755,0.001028,-0.080482,-0.000226,0.999950,0.009968,0.080489,-0.009918,0.996706,0.080482,-0.009968,-0.996706,-0.333488,0.004200,-0.069303,0.003934,-0.003124,0.001046,346.375763,350.838562,-1.000000,0.000000,0.000000
482149741.217085,0.125778,-0.013992,-1.049545,0.080580,0.010047,0.000253,0.996755,0.001061,-0.080489,-0.000253,0.999950,0.010047,0.080495,-0.009994,0.996705,0.080489,-0.010047,-0.996705,-0.229338,0.004203,-0.074432,0.006398,0.001523,0.002296,346.375763,350.838562,-1.000000,0.000000,0.000000
482149741.226032,0.201035,-0.000778,-1.081329,0.080580,0.010047,0.000253,0.996755,0.001061,-0.080489,-0.000253,0.999950,0.010047,0.080495,-0.009994,0.996705,0.080489,-0.010047,-0.996705,-0.229338,0.004203,-0.074432,0.006398,0.001523,0.002296,346.375763,350.838562,-1.000000,0.000000,0.000000
482149741.235093,0.201035,-0.000778,-1.081329,0.080505,0.010094,0.000211,0.996761,0.001022,-0.080414,-0.000211,0.999949,0.010094,0.080420,-0.010045,0.996710,0.080414,-0.010094,-0.996710,-0.205643,0.002022,-0.043878,0.007640,-0.008893,-0.001408,346.375763,350.838562,-1.000000,0.000000,0.000000
482149741.246102,0.145599,-0.014374,-1.048431,0.080516,0.010127,0.000259,0.996760,0.001072,-0.080425,-0.000259,0.999949,0.010127,0.080432,-0.010073,0.996709,0.080425,-0.010127,-0.996709,0.045353,-0.003866,-0.052836,-0.001018,0.002666,0.007188,346.375763,350.838562,-1.000000,0.000000,0.000000
482149741.256048,0.038467,-0.003540,-1.074677,0.080516,0.010127,0.000259,0.996760,0.001072,-0.080425,-0.000259,0.999949,0.010127,0.080432,-0.010073,0.996709,0.080425,-0.010127,-0.996709,0.045353,-0.003866,-0.052836,-0.001018,0.002666,0.007188,346.375763,350.838562,-1.000000,0.000000,0.000000
482149741.266066,-0.050644,-0.012604,-1.055725,0.080570,0.010211,0.000310,0.996756,0.001131,-0.080479,-0.000310,0.999948,0.010211,0.080486,-0.010153,0.996704,0.080479,-0.010211,-0.996704,0.120555,0.009433,-0.084625,0.005150,0.007329,0.007224,346.375763,350.838562,-1.000000,0.000000,0.000000
482149741.276019,-0.195404,-0.010849,-1.063644,0.080655,0.010294,0.000385,0.996749,0.001213,-0.080564,-0.000384,0.999947,0.010294,0.080572,-0.010229,0.996696,0.080564,-0.010294,-0.996696,-0.042096,0.006754,-0.077980,0.010105,0.001528,-0.000149,346.375763,350.838562,-1.000000,0.000000,0.000000
482149741.286160,-0.135056,-0.011856,-1.041641,0.080655,0.010294,0.000385,0.996749,0.001213,-0.080564,-0.000384,0.999947,0.010294,0.080572,-0.010229,0.996696,0.080564,-0.010294,-0.996696,-0.042096,0.006754,-0.077980,0.010105,0.001528,-0.000149,346.375763,350.838562,-1.000000,0.000000,0.000000
482149741.296103,-0.100052,-0.016693,-1.065887,0.080720,0.010289,0.000371,0.996744,0.001199,-0.080628,-0.000371,0.999947,0.010289,0.080636,-0.010226,0.996691,0.080628,-0.010289,-0.996691,-0.131272,-0.002315,-0.059034,-0.002225,0.010678,-0.000191,346.375763,350.838562,-1.000000,0.000000,0.000000
482149741.306171,-0.044815,-0.005829,-1.064484,0.080766,0.010329,0.000358,0.996740,0.001190,-0.080674,-0.000358,0.999947,0.010329,0.080682,-0.010266,0.996687,0.080674,-0.010329,-0.996687,-0.276078,-0.000520,-0.066957,0.001471,-0.003152,-0.000196,346.375763,350.838562,-1.000000,0.000000,0.000000
482149741.316261,0.111816,-0.008804,-1.055527,0.080766,0.010329,0.000358,0.996740,0.001190,-0.080674,-0.000358,0.999947,0.010329,0.080682,-0.010266,0.996687,0.080674,-0.010329,-0.996687,-0.276078,-0.000520,-0.066957,0.001471,-0.003152,-0.000196,346.375763,350.838562,-1.000000,0.000000,0.000000
482149741.325961,0.116653,0.000931,-1.071167,0.080712,0.010325,0.000356,0.996744,0.001188,-0.080621,-0.000356,0.999947,0.010325,0.080629,-0.010263,0.996691,0.080621,-0.010325,-0.996691,-0.215676,-0.001531,-0.044950,0.000241,-0.007791,-0.001440,346.375763,350.838562,-1.000000,0.000000,0.000000
482149741.335270,0.116653,0.000931,-1.071167,0.080696,0.010313,0.000378,0.996745,0.001208,-0.080604,-0.000377,0.999947,0.010313,0.080612,-0.010249,0.996693,0.080604,-0.010313,-0.996693,-0.125419,0.004484,-0.067791,0.005168,0.001503,0.001059,346.375763,350.838562,-1.000000,0.000000,0.000000
482149741.348078,0.141693,-0.015305,-1.052383,0.080696,0.010313,0.000378,0.996745,0.001208,-0.080604,-0.000377,0.999947,0.010313,0.080612,-0.010249,0.996693,0.080604,-0.010313,-0.996693,-0.125419,0.004484,-0.067791,0.005168,0.001503,0.001059,346.375763,350.838562,-1.000000,0.000000,0.000000
482149741.355857,0.047440,-0.001846,-1.089310,0.080677,0.010395,0.000393,0.996747,0.001230,-0.080585,-0.000393,0.999946,0.010395,0.080593,-0.010329,0.996694,0.080585,-0.010395,-0.996694,0.031231,0.001591,-0.058833,0.001463,-0.000822,0.002270,346.375763,350.838562,-1.000000,0.000000,0.000000
482149741.366140,-0.056671,-0.017288,-1.031281,0.080695,0.010498,0.000496,0.996745,0.001340,-0.080603,-0.000496,0.999945,0.010498,0.080612,-0.010424,0.996691,0.080603,-0.010498,-0.996691,0.061091,-0.004807,-0.055692,-0.004715,0.000320,0.005936,346.375763,350.838562,-1.000000,0.000000,0.000000
482149741.376968,-0.198242,-0.007004,-1.092072,0.080695,0.010498,0.000496,0.996745,0.001340,-0.080603,-0.000496,0.999945,0.010498,0.080612,-0.010424,0.996691,0.080603,-0.010498,-0.996691,0.061091,-0.004807,-0.055692,-0.004715,0.000320,0.005936,346.375763,350.838562,-1.000000,0.000000,0.000000
482149741.385832,-0.122101,-0.013138,-1.044495,0.080641,0.010480,0.000543,0.996750,0.001386,-0.080549,-0.000543,0.999945,0.010480,0.080559,-0.010402,0.996696,0.080549,-0.010480,-0.996696,-0.033110,0.008633,-0.092614,0.000216,-0.008883,0.005944,346.375763,350.838562,-1.000000,0.000000,0.000000
482149741.396478,-0.074371,-0.009293,-1.075500,0.080569,0.010531,0.000517,0.996756,0.001363,-0.080477,-0.000517,0.999944,0.010530,0.080487,-0.010455,0.996701,0.080477,-0.010530,-0.996701,-0.137148,-0.006758,-0.034580,0.005160,0.000369,0.003519,346.375763,350.838562,-1.000000,0.000000,0.000000
482149741.406213,0.102158,-0.009811,-1.086975,0.080533,0.010552,0.000526,0.996758,0.001373,-0.080441,-0.000526,0.999944,0.010551,0.080451,-0.010475,0.996704,0.080441,-0.010551,-0.996704,-0.278683,0.003548,-0.095368,0.000226,-0.003130,0.003491,346.375763,350.838562,-1.000000,0.000000,0.000000
482149741.416049,0.213104,-0.016678,-1.050873,0.080533,0.010552,0.000526,0.996758,0.001373,-0.080441,-0.000526,0.999944,0.010551,0.080451,-0.010475,0.996704,0.080441,-0.010551,-0.996704,-0.278683,0.003548,-0.095368,0.000226,-0.003130,0.003491,346.375763,350.838562,-1.000000,0.000000,0.000000
482149741.426172,0.124496,0.004715,-1.075012,0.080567,0.010649,0.000641,0.996755,0.001495,-0.080475,-0.000640,0.999943,0.010649,0.080487,-0.010563,0.996700,0.080475,-0.010649,-0.996700,-0.154847,0.001357,-0.078801,0.001436,0.000406,0.010888,346.375763,350.838562,-1.000000,0.000000,0.000000
482149741.436845,0.123077,-0.020020,-1.067215,0.080559,0.010672,0.000667,0.996756,0.001523,-0.080467,-0.000667,0.999943,0.010672,0.080479,-0.010583,0.996700,0.080467,-0.010672,-0.996700,0.021691,0.000860,-0.090275,0.001467,-0.000832,0.001038,346.375763,350.838562,-1.000000,0.000000,0.000000
482149741.446154,0.123077,-0.020020,-1.067215,0.080559,0.010672,0.000667,0.996756,0.001523,-0.080467,-0.000667,0.999943,0.010672,0.080479,-0.010583,0.996700,0.080467,-0.010672,-0.996700,0.021691,0.000860,-0.090275,0.001467,-0.000832,0.001038,346.375763,350.838562,-1.000000,0.000000,0.000000
482149741.455713,0.036255,0.006393,-1.078598,0.080520,0.010733,0.000694,0.996759,0.001555,-0.080429,-0.000694,0.999942,0.010732,0.080441,-0.010642,0.996703,0.080429,-0.010732,-0.996703,0.044068,0.015447,-0.078310,0.008871,-0.003100,-0.000163,346.375763,350.838562,-1.000000,0.000000,0.000000
482149741.466144,-0.070602,-0.012100,-1.038223,0.080495,0.010770,0.000756,0.996761,0.001619,-0.080404,-0.000756,0.999942,0.010770,0.080416,-0.010674,0.996704,0.080404,-0.010770,-0.996704,0.044093,0.015485,-0.078308,-0.001016,-0.004273,0.005946,346.375763,350.838562,-1.000000,0.000000,0.000000
482149741.476250,-0.203293,-0.003006,-1.096985,0.080495,0.010770,0.000756,0.996761,0.001619,-0.080404,-0.000756,0.999942,0.010770,0.080416,-0.010674,0.996704,0.080404,-0.010770,-0.996704,0.044093,0.015485,-0.078308,-0.001016,-0.004273,0.005946,346.375763,350.838562,-1.000000,0.000000,0.000000
482149741.485843,-0.101151,-0.004944,-1.093307,0.080445,0.010822,0.000748,0.996765,0.001615,-0.080354,-0.000748,0.999941,0.010822,0.080367,-0.010727,0.996708,0.080354,-0.010822,-0.996708,-0.044099,0.017215,-0.081890,0.003943,0.002628,-0.001407,346.375763,350.838562,-1.000000,0.000000,0.000000
482149741.496135,-0.087326,-0.014816,-1.049118,0.080437,0.010847,0.000732,0.996766,0.001601,-0.080346,-0.000732,0.999941,0.010847,0.080358,-0.010753,0.996708,0.080346,-0.010847,-0.996708,-0.150948,-0.001253,-0.041515,0.007634,0.000366,0.001068,346.375763,350.838562,-1.000000,0.000000,0.000000
482149741.505754,0.069336,-0.011063,-1.071518,0.080437,0.010847,0.000732,0.996766,0.001601,-0.080346,-0.000732,0.999941,0.010847,0.080358,-0.010753,0.996708,0.080346,-0.010847,-0.996708,-0.150948,-0.001253,-0.041515,0.007634,0.000366,0.001068,346.375763,350.838562,-1.000000,0.000000,0.000000
482149741.516145,0.196106,-0.011368,-1.050018,0.080393,0.010880,0.000785,0.996769,0.001657,-0.080301,-0.000785,0.999941,0.010880,0.080315,-0.010781,0.996711,0.080301,-0.010880,-0.996711,-0.181452,0.005936,-0.096596,-0.004709,-0.006630,0.003463,346.375763,350.838562,-1.000000,0.000000,0.000000
482149741.526727,0.105774,-0.000854,-1.069275,0.080374,0.010961,0.000789,0.996771,0.001667,-0.080282,-0.000789,0.999940,0.010960,0.080296,-0.010862,0.996712,0.080282,-0.010960,-0.996712,-0.167608,-0.003856,-0.052406,0.011327,0.003877,0.003552,346.375763,350.838562,-1.000000,0.000000,0.000000
482149741.535211,0.105774,-0.000854,-1.069275,0.080374,0.010961,0.000789,0.996771,0.001667,-0.080282,-0.000789,0.999940,0.010960,0.080296,-0.010862,0.996712,0.080282,-0.010960,-0.996712,-0.167608,-0.003856,-0.052406,0.011327,0.003877,0.003552,346.375763,350.838562,-1.000000,0.000000,0.000000
482149741.545911,0.141708,-0.016281,-1.049423,0.080402,0.011029,0.000906,0.996768,0.001789,-0.080311,-0.000906,0.999939,0.011028,0.080326,-0.010920,0.996709,0.080311,-0.011028,-0.996709,-0.010975,-0.000034,-0.074809,0.008856,0.000406,0.004767,346.375763,350.838562,-1.000000,0.000000,0.000000
482149741.556004,0.096970,-0.004669,-1.074249,0.080433,0.011016,0.000864,0.996766,0.001746,-0.080342,-0.000863,0.999939,0.011015,0.080356,-0.010910,0.996706,0.080342,-0.011015,-0.996706,0.115764,-0.000353,-0.053312,-0.002215,0.004873,-0.003894,346.375763,350.838562,-1.000000,0.000000,0.000000
482149741.567037,-0.004028,-0.008652,-1.072052,0.080422,0.010988,0.000760,0.996767,0.001640,-0.080331,-0.000760,0.999939,0.010988,0.080344,-0.010891,0.996708,0.080331,-0.010988,-0.996708,0.061377,-0.005293,-0.052716,-0.004676,-0.003249,-0.006380,346.375763,350.838562,-1.000000,0.000000,0.000000
482149741.575984,-0.124008,-0.016098,-1.047440,0.080422,0.010988,0.000760,0.996767,0.001640,-0.080331,-0.000760,0.999939,0.010988,0.080344,-0.010891,0.996708,0.080331,-0.010988,-0.996708,0.061377,-0.005293,-0.052716,-0.004676,-0.003249,-0.006380,346.375763,350.838562,-1.000000,0.000000,0.000000
482149741.585623,-0.089096,-0.012070,-1.086380,0.080392,0.011031,0.000736,0.996769,0.001620,-0.080301,-0.000736,0.999939,0.011030,0.080314,-0.010936,0.996710,0.080301,-0.011030,-0.996710,0.016669,0.006361,-0.077540,0.003938,-0.000825,-0.000182,346.375763,350.838562,-1.000000,0.000000,0.000000
482149741.596355,-0.107254,-0.014359,-1.038483,0.080410,0.011112,0.000792,0.996768,0.001682,-0.080318,-0.000792,0.999938,0.011112,0.080332,-0.011012,0.996707,0.080318,-0.011112,-0.996707,-0.204326,-0.004986,-0.050732,0.007650,0.000324,-0.003856,346.375763,350.838562,-1.000000,0.000000,0.000000
482149741.609230,0.030579,-0.006348,-1.071793,0.080410,0.011112,0.000792,0.996768,0.001682,-0.080318,-0.000792,0.999938,0.011112,0.080332,-0.011012,0.996707,0.080318,-0.011112,-0.996707,-0.204326,-0.004986,-0.050732,0.007650,0.000324,-0.003856,346.375763,350.838562,-1.000000,0.000000,0.000000
482149741.615584,0.139603,-0.013199,-1.042603,0.080401,0.011093,0.000834,0.996768,0.001722,-0.080310,-0.000834,0.999938,0.011093,0.080324,-0.010990,0.996708,0.080310,-0.011093,-0.996708,-0.169406,-0.000977,-0.089672,0.000222,-0.000810,0.004725,346.375763,350.838562,-1.000000,0.000000,0.000000
482149741.629116,0.221008,-0.004196,-1.090988,0.080441,0.011195,0.000840,0.996765,0.001737,-0.080350,-0.000840,0.999937,0.011194,0.080364,-0.011091,0.996704,0.080350,-0.011194,-0.996704,-0.187604,-0.003164,-0.041779,0.003956,0.004906,-0.005097,346.375763,350.838562,-1.000000,0.000000,0.000000
482149741.636619,0.221008,-0.004196,-1.090988,0.080441,0.011195,0.000840,0.996765,0.001737,-0.080350,-0.000840,0.999937,0.011194,0.080364,-0.011091,0.996704,0.080350,-0.011194,-0.996704,-0.187604,-0.003164,-0.041779,0.003956,0.004906,-0.005097,346.375763,350.838562,-1.000000,0.000000,0.000000
482149741.645646,0.161407,-0.016525,-1.030670,0.080501,0.011203,0.000838,0.996760,0.001736,-0.080409,-0.000838,0.999937,0.011203,0.080423,-0.011099,0.996699,0.080409,-0.011203,-0.996699,-0.049830,0.004855,-0.075094,0.001465,0.007261,0.002282,346.375763,350.838562,-1.000000,0.000000,0.000000
482149741.656009,0.137863,-0.013412,-1.077881,0.080507,0.011248,0.000741,0.996760,0.001643,-0.080415,-0.000741,0.999936,0.011248,0.080429,-0.011152,0.996698,0.080415,-0.011248,-0.996698,0.140593,0.007052,-0.094290,0.010104,-0.001937,-0.000156,346.375763,350.838562,-1.000000,0.000000,0.000000
482149741.665775,0.005966,-0.013763,-1.066086,0.080507,0.011248,0.000741,0.996760,0.001643,-0.080415,-0.000741,0.999936,0.011248,0.080429,-0.011152,0.996698,0.080415,-0.011248,-0.996698,0.140593,0.007052,-0.094290,0.010104,-0.001937,-0.000156,346.375763,350.838562,-1.000000,0.000000,0.000000
482149741.675822,-0.227188,-0.010193,-1.056030,0.080538,0.011245,0.000751,0.996758,0.001653,-0.080446,-0.000751,0.999937,0.011245,0.080460,-0.011148,0.996696,0.080446,-0.011245,-0.996696,0.080961,-0.005280,-0.033975,-0.003457,0.003730,-0.001440,346.375763,350.838562,-1.000000,0.000000,0.000000
482149741.686147,-0.112991,-0.014450,-1.066956,0.080488,0.011296,0.000731,0.996762,0.001637,-0.080396,-0.000731,0.999936,0.011296,0.080410,-0.011201,0.996699,0.080396,-0.011296,-0.996699,-0.074430,-0.002467,-0.069387,0.000249,-0.005503,-0.003900,346.375763,350.838562,-1.000000,0.000000,0.000000
482149741.695997,-0.115204,-0.007401,-1.057190,0.080488,0.011296,0.000731,0.996762,0.001637,-0.080396,-0.000731,0.999936,0.011296,0.080410,-0.011201,0.996699,0.080396,-0.011296,-0.996699,-0.074430,-0.002467,-0.069387,0.000249,-0.005503,-0.003900,346.375763,350.838562,-1.000000,0.000000,0.000000
482149741.705963,-0.022934,-0.007263,-1.068268,0.080474,0.011254,0.000702,0.996763,0.001605,-0.080382,-0.000702,0.999936,0.011254,0.080395,-0.011161,0.996701,0.080382,-0.011254,-0.996701,-0.307570,0.001061,-0.059330,-0.002213,-0.003221,-0.005138,346.375763,350.838562,-1.000000,0.000000,0.000000
482149741.716140,0.152542,-0.009659,-1.064041,0.080530,0.011173,0.000831,0.996758,0.001727,-0.080438,-0.000831,0.999937,0.011172,0.080452,-0.011069,0.996697,0.080438,-0.011172,-0.996697,-0.193429,-0.003278,-0.070259,0.001432,0.003880,0.012124,346.375763,350.838562,-1.000000,0.000000,0.000000
482149741.725890,0.220901,-0.008942,-1.059631,0.080530,0.011173,0.000831,0.996758,0.001727,-0.080438,-0.000831,0.999937,0.011172,0.080452,-0.011069,0.996697,0.080438,-0.011172,-0.996697,-0.193429,-0.003278,-0.070259,0.001432,0.003880,0.012124,346.375763,350.838562,-1.000000,0.000000,0.000000
482149741.737328,0.220901,-0.008942,-1.059631,0.080561,0.011204,0.000899,0.996756,0.001797,-0.080468,-0.000898,0.999937,0.011204,0.080484,-0.011095,0.996694,0.080468,-0.011204,-0.996694,-0.195672,0.003804,-0.060496,0.001444,0.002694,0.008429,346.375763,350.838562,-1.000000,0.000000,0.000000
482149741.745338,0.142883,-0.016479,-1.075897,0.080556,0.011313,0.000994,0.996756,0.001902,-0.080464,-0.000994,0.999936,0.011312,0.080480,-0.011196,0.996693,0.080464,-0.011312,-0.996693,0.072079,0.001654,-0.067348,0.003910,-0.001908,0.008433,346.375763,350.838562,-1.000000,0.000000,0.000000
482149741.757554,-0.076538,-0.007141,-1.056900,0.080615,0.011367,0.001049,0.996751,0.001960,-0.080523,-0.001048,0.999935,0.011367,0.080540,-0.011246,0.996688,0.080523,-0.011367,-0.996688,0.140379,0.002425,-0.062943,0.008853,0.007345,0.006008,346.375763,350.838562,-1.000000,0.000000,0.000000
482149741.766044,-0.076538,-0.007141,-1.056900,0.080615,0.011367,0.001049,0.996751,0.001960,-0.080523,-0.001048,0.999935,0.011367,0.080540,-0.011246,0.996688,0.080523,-0.011367,-0.996688,0.140379,0.002425,-0.062943,0.008853,0.007345,0.006008,346.375763,350.838562,-1.000000,0.000000,0.000000
482149741.775692,-0.209381,-0.006592,-1.062744,0.080666,0.011368,0.001147,0.996747,0.002059,-0.080573,-0.001147,0.999935,0.011367,0.080591,-0.011238,0.996684,0.080573,-0.011367,-0.996684,-0.047034,0.003997,-0.071157,0.000222,-0.000810,0.004725,346.375763,350.838562,-1.000000,0.000000,0.000000
482149741.791295,-0.104050,-0.014633,-1.068848,0.080652,0.011372,0.001169,0.996748,0.002081,-0.080559,-0.001168,0.999935,0.011371,0.080577,-0.011240,0.996685,0.080559,-0.011371,-0.996685,-0.047020,0.004001,-0.071156,0.001463,-0.003132,0.002265,346.375763,350.838562,-1.000000,0.000000,0.000000
482149741.795462,-0.104050,-0.014633,-1.068848,0.080652,0.011372,0.001169,0.996748,0.002081,-0.080559,-0.001168,0.999935,0.011371,0.080577,-0.011240,0.996685,0.080559,-0.011371,-0.996685,-0.047020,0.004001,-0.071156,0.001463,-0.003132,0.002265,346.375763,350.838562,-1.000000,0.000000,0.000000
482149741.806235,-0.055862,-0.004501,-1.045944,0.080612,0.011368,0.001219,0.996751,0.002130,-0.080520,-0.001219,0.999935,0.011368,0.080539,-0.011233,0.996688,0.080520,-0.011368,-0.996688,-0.289901,0.004776,-0.066056,-0.004699,-0.002032,0.001007,346.375763,350.838562,-1.000000,0.000000,0.000000
482149741.816740,0.133957,-0.016312,-1.074966,0.080627,0.011401,0.001226,0.996750,0.002141,-0.080534,-0.001226,0.999934,0.011401,0.080553,-0.011265,0.996687,0.080534,-0.011401,-0.996687,-0.224593,0.004626,-0.050890,0.007622,0.002706,0.004764,346.375763,350.838562,-1.000000,0.000000,0.000000
482149741.826247,0.137589,-0.001541,-1.078857,0.080627,0.011401,0.001226,0.996750,0.002141,-0.080534,-0.001226,0.999934,0.011401,0.080553,-0.011265,0.996687,0.080534,-0.011401,-0.996687,-0.224593,0.004626,-0.050890,0.007622,0.002706,0.004764,346.375763,350.838562,-1.000000,0.000000,0.000000
482149741.836063,0.146576,-0.011429,-1.054306,0.080677,0.011418,0.001311,0.996745,0.002227,-0.080585,-0.001311,0.999934,0.011418,0.080605,-0.011275,0.996682,0.080585,-0.011418,-0.996682,-0.136447,0.006917,-0.049262,0.002687,0.006146,0.005978,346.375763,350.838562,-1.000000,0.000000,0.000000
482149741.845677,0.146576,-0.011429,-1.054306,0.080697,0.011409,0.001394,0.996744,0.002309,-0.080604,-0.001394,0.999934,0.011409,0.080625,-0.011259,0.996681,0.080604,-0.011409,-0.996681,0.053353,-0.004903,-0.078286,-0.004723,0.001495,0.008399,346.375763,350.838562,-1.000000,0.000000,0.000000
482149741.856182,0.044342,0.001251,-1.082458,0.080697,0.011409,0.001394,0.996744,0.002309,-0.080604,-0.001394,0.999934,0.011409,0.080625,-0.011259,0.996681,0.080604,-0.011409,-0.996681,0.053353,-0.004903,-0.078286,-0.004723,0.001495,0.008399,346.375763,350.838562,-1.000000,0.000000,0.000000
482149741.869119,-0.073654,-0.010071,-1.039230,0.080625,0.011557,0.001457,0.996749,0.002383,-0.080532,-0.001457,0.999932,0.011557,0.080554,-0.011402,0.996685,0.080532,-0.011557,-0.996685,0.057056,0.010015,-0.082172,0.008858,-0.005379,0.003526,346.375763,350.838562,-1.000000,0.000000,0.000000
482149741.875717,-0.198318,-0.008896,-1.075409,0.080594,0.011569,0.001502,0.996751,0.002429,-0.080502,-0.001502,0.999932,0.011568,0.080524,-0.011410,0.996687,0.080502,-0.011568,-0.996687,0.066074,0.000140,-0.057619,-0.002237,-0.002004,0.002249,346.375763,350.838562,-1.000000,0.000000,0.000000
482149741.887797,-0.124130,-0.009186,-1.053314,0.080600,0.011583,0.001467,0.996751,0.002395,-0.080508,-0.001467,0.999932,0.011582,0.080530,-0.011427,0.996687,0.080508,-0.011582,-0.996687,-0.154162,0.001512,-0.042544,-0.002247,0.006111,0.005955,346.375763,350.838562,-1.000000,0.000000,0.000000
482149741.895904,-0.076263,-0.012268,-1.079422,0.080600,0.011583,0.001467,0.996751,0.002395,-0.080508,-0.001467,0.999932,0.011582,0.080530,-0.011427,0.996687,0.080508,-0.011582,-0.996687,-0.154162,0.001512,-0.042544,-0.002247,0.006111,0.005955,346.375763,350.838562,-1.000000,0.000000,0.000000
482149741.906116,-0.051666,-0.012558,-1.052795,0.080576,0.011650,0.001454,0.996753,0.002387,-0.080483,-0.001454,0.999931,0.011650,0.080505,-0.011495,0.996688,0.080483,-0.011650,-0.996688,-0.278802,0.002754,-0.078721,0.010115,-0.004278,-0.003853,346.375763,350.838562,-1.000000,0.000000,0.000000
482149741.917648,0.199036,-0.009445,-1.049988,0.080554,0.011659,0.001426,0.996755,0.002359,-0.080461,-0.001425,0.999931,0.011658,0.080483,-0.011506,0.996690,0.080461,-0.011658,-0.996690,-0.156725,-0.000610,-0.082732,-0.000988,-0.004346,-0.002673,346.375763,350.838562,-1.000000,0.000000,0.000000
482149741.925851,0.121811,-0.002274,-1.089752,0.080554,0.011659,0.001426,0.996755,0.002359,-0.080461,-0.001425,0.999931,0.011658,0.080483,-0.011506,0.996690,0.080461,-0.011658,-0.996690,-0.156725,-0.000610,-0.082732,-0.000988,-0.004346,-0.002673,346.375763,350.838562,-1.000000,0.000000,0.000000
482149741.936047,0.122818,-0.013947,-1.051529,0.080579,0.011634,0.001395,0.996753,0.002327,-0.080487,-0.001395,0.999931,0.011634,0.080508,-0.011484,0.996688,0.080486,-0.011634,-0.996688,-0.132153,-0.000924,-0.056108,-0.002220,0.003728,-0.002666,346.375763,350.838562,-1.000000,0.000000,0.000000
482149741.947677,0.047302,-0.003647,-1.063828,0.080495,0.011635,0.001349,0.996760,0.002280,-0.080403,-0.001349,0.999931,0.011635,0.080424,-0.011489,0.996695,0.080403,-0.011635,-0.996695,0.118633,0.002190,-0.053293,-0.003447,-0.004385,-0.005146,346.375763,350.838562,-1.000000,0.000000,0.000000
482149741.955281,0.047302,-0.003647,-1.063828,0.080495,0.011635,0.001349,0.996760,0.002280,-0.080403,-0.001349,0.999931,0.011635,0.080424,-0.011489,0.996695,0.080403,-0.011635,-0.996695,0.118633,0.002190,-0.053293,-0.003447,-0.004385,-0.005146,346.375763,350.838562,-1.000000,0.000000,0.000000
482149741.966030,-0.058578,-0.014420,-1.050873,0.080448,0.011660,0.001321,0.996764,0.002254,-0.080356,-0.001321,0.999931,0.011659,0.080377,-0.011516,0.996698,0.080356,-0.011659,-0.996698,0.041455,0.009386,-0.093054,0.002711,-0.006630,-0.002660,346.375763,350.838562,-1.000000,0.000000,0.000000
482149741.976042,-0.154800,-0.003830,-1.081940,0.080471,0.011708,0.001344,0.996762,0.002281,-0.080379,-0.001344,0.999931,0.011708,0.080400,-0.011562,0.996696,0.080379,-0.011708,-0.996696,-0.033076,0.008061,-0.067132,0.008871,0.000364,-0.000159,346.375763,350.838562,-1.000000,0.000000,0.000000
482149741.986879,-0.105316,-0.014359,-1.031631,0.080471,0.011708,0.001344,0.996762,0.002281,-0.080379,-0.001344,0.999931,0.011708,0.080400,-0.011562,0.996696,0.080379,-0.011708,-0.996696,-0.033076,0.008061,-0.067132,0.008871,0.000364,-0.000159,346.375763,350.838562,-1.000000,0.000000,0.000000
482149741.996742,-0.075607,0.000610,-1.079407,0.080507,0.011712,0.001438,0.996759,0.002375,-0.080415,-0.001438,0.999930,0.011711,0.080437,-0.011558,0.996693,0.080415,-0.011711,-0.996693,-0.138993,-0.002708,-0.054180,-0.004722,0.003805,0.008402,346.375763,350.838562,-1.000000,0.000000,0.000000
482149742.007508,0.056534,-0.007980,-1.092163,0.080564,0.011755,0.001545,0.996754,0.002486,-0.080471,-0.001545,0.999930,0.011754,0.080495,-0.011592,0.996688,0.080471,-0.011754,-0.996688,-0.185787,-0.002604,-0.034944,-0.001007,0.003789,0.003495,346.375763,350.838562,-1.000000,0.000000,0.000000
482149742.016276,0.175430,-0.021805,-1.035477,0.080564,0.011755,0.001545,0.996754,0.002486,-0.080471,-0.001545,0.999930,0.011754,0.080495,-0.011592,0.996688,0.080471,-0.011754,-0.996688,-0.185787,-0.002604,-0.034944,-0.001007,0.003789,0.003495,346.375763,350.838562,-1.000000,0.000000,0.000000
482149742.027074,0.109772,0.004837,-1.096695,0.080584,0.011883,0.001617,0.996752,0.002568,-0.080491,-0.001617,0.999928,0.011883,0.080516,-0.011714,0.996684,0.080491,-0.011883,-0.996684,-0.156099,0.012493,-0.082722,0.013777,0.001627,0.008483,346.375763,350.838562,-1.000000,0.000000,0.000000
482149742.035905,0.124573,-0.011826,-1.028000,0.080568,0.011921,0.001586,0.996753,0.002541,-0.080475,-0.001586,0.999928,0.011921,0.080500,-0.011755,0.996685,0.080475,-0.011921,-0.996685,-0.023941,0.003941,-0.095478,0.010113,0.002661,-0.002612,346.375763,350.838562,-1.000000,0.000000,0.000000
482149742.046226,0.091034,-0.004578,-1.075256,0.080568,0.011921,0.001586,0.996753,0.002541,-0.080475,-0.001586,0.999928,0.011921,0.080500,-0.011755,0.996685,0.080475,-0.011921,-0.996685,-0.023941,0.003941,-0.095478,0.010113,0.002661,-0.002612,346.375763,350.838562,-1.000000,0.000000,0.000000
482149742.056124,0.091034,-0.004578,-1.075256,0.080548,0.011917,0.001579,0.996755,0.002532,-0.080456,-0.001579,0.999928,0.011917,0.080480,-0.011751,0.996687,0.080456,-0.011917,-0.996687,0.094975,-0.009888,-0.038790,-0.003467,-0.003178,0.001010,346.375763,350.838562,-1.000000,0.000000,0.000000
482149742.066293,-0.017899,-0.016174,-1.051575,0.080537,0.011960,0.001686,0.996756,0.002642,-0.080445,-0.001685,0.999927,0.011960,0.080470,-0.011785,0.996687,0.080445,-0.011960,-0.996687,0.044128,0.000134,-0.031313,0.000209,-0.003089,0.008413,346.375763,350.838562,-1.000000,0.000000,0.000000
482149742.077889,-0.117081,-0.010376,-1.062088,0.080537,0.011960,0.001686,0.996756,0.002642,-0.080445,-0.001685,0.999927,0.011960,0.080470,-0.011785,0.996687,0.080445,-0.011960,-0.996687,0.044128,0.000134,-0.031313,0.000209,-0.003089,0.008413,346.375763,350.838562,-1.000000,0.000000,0.000000
482149742.086115,-0.149811,-0.007797,-1.071136,0.080546,0.011983,0.001724,0.996755,0.002682,-0.080453,-0.001724,0.999927,0.011983,0.080479,-0.011805,0.996686,0.080453,-0.011983,-0.996686,0.010581,0.007405,-0.078570,0.003918,-0.001929,0.005970,346.375763,350.838562,-1.000000,0.000000,0.000000
482149742.096053,-0.121216,-0.006241,-1.051315,0.080647,0.012033,0.001775,0.996747,0.002738,-0.080554,-0.001774,0.999926,0.012033,0.080581,-0.011850,0.996678,0.080554,-0.012033,-0.996678,-0.197634,0.001657,-0.065410,0.000542,0.004943,0.007485,346.375763,350.838562,-1.000000,0.000000,0.000000
482149742.114221,0.010925,-0.012909,-1.071945,0.080661,0.012091,0.001753,0.996745,0.002722,-0.080568,-0.001753,0.999925,0.012091,0.080595,-0.011910,0.996676,0.080568,-0.012091,-0.996676,-0.197648,0.001715,-0.065412,0.003035,0.001423,-0.001127,346.375763,350.838562,-1.000000,0.000000,0.000000
482149742.126077,0.190216,-0.006485,-1.074539,0.080695,0.012159,0.001786,0.996743,0.002760,-0.080601,-0.001786,0.999924,0.012158,0.080629,-0.011975,0.996672,0.080601,-0.012158,-0.996672,-0.201817,0.005917,-0.054643,0.000541,0.002633,0.007481,346.375763,350.838562,-1.000000,0.000000,0.000000
482149742.135978,0.155334,-0.012421,-1.027786,0.080698,0.012279,0.001795,0.996742,0.002779,-0.080604,-0.001795,0.999923,0.012279,0.080632,-0.012094,0.996671,0.080604,-0.012279,-0.996671,-0.069679,-0.000630,-0.075275,0.015360,0.002686,0.001393,346.375763,350.838562,-1.000000,0.000000,0.000000
482149742.146464,0.129929,-0.011307,-1.082855,0.080698,0.012279,0.001795,0.996742,0.002779,-0.080604,-0.001795,0.999923,0.012279,0.080632,-0.012094,0.996671,0.080604,-0.012279,-0.996671,-0.069679,-0.000630,-0.075275,0.015360,0.002686,0.001393,346.375763,350.838562,-1.000000,0.000000,0.000000
482149742.156032,0.062363,-0.012833,-1.058838,0.080624,0.012312,0.001848,0.996748,0.002834,-0.080531,-0.001848,0.999923,0.012312,0.080560,-0.012123,0.996676,0.080531,-0.012312,-0.996676,0.109685,0.005827,-0.077863,0.005489,-0.003147,0.002570,346.375763,350.838562,-1.000000,0.000000,0.000000
482149742.166543,0.062363,-0.012833,-1.058838,0.080639,0.012401,0.001837,0.996747,0.002830,-0.080545,-0.001836,0.999921,0.012401,0.080574,-0.012212,0.996674,0.080545,-0.012401,-0.996674,0.074789,-0.000020,-0.031112,0.006739,0.000284,-0.002343,346.375763,350.838562,-1.000000,0.000000,0.000000
482149742.176038,-0.077271,-0.013214,-1.075531,0.080639,0.012401,0.001837,0.996747,0.002830,-0.080545,-0.001836,0.999921,0.012401,0.080574,-0.012212,0.996674,0.080545,-0.012401,-0.996674,0.074789,-0.000020,-0.031112,0.006739,0.000284,-0.002343,346.375763,350.838562,-1.000000,0.000000,0.000000
482149742.185651,-0.131973,-0.011032,-1.056320,0.080661,0.012423,0.001825,0.996745,0.002820,-0.080567,-0.001825,0.999921,0.012423,0.080596,-0.012235,0.996672,0.080567,-0.012423,-0.996672,0.049361,0.001116,-0.086183,-0.001906,0.001409,0.001313,346.375763,350.838562,-1.000000,0.000000,0.000000
482149742.195699,-0.154800,-0.008667,-1.065292,0.080657,0.012369,0.001836,0.996745,0.002826,-0.080564,-0.001835,0.999922,0.012369,0.080592,-0.012181,0.996673,0.080564,-0.012369,-0.996673,-0.018201,-0.000464,-0.062165,-0.001886,-0.000953,-0.004846,346.375763,350.838562,-1.000000,0.000000,0.000000
482149742.208107,-0.007095,-0.011444,-1.053452,0.080657,0.012369,0.001836,0.996745,0.002826,-0.080564,-0.001835,0.999922,0.012369,0.080592,-0.012181,0.996673,0.080564,-0.012369,-0.996673,-0.018201,-0.000464,-0.062165,-0.001886,-0.000953,-0.004846,346.375763,350.838562,-1.000000,0.000000,0.000000
482149742.215881,0.150742,-0.016556,-1.064072,0.080646,0.012429,0.001839,0.996746,0.002834,-0.080552,-0.001839,0.999921,0.012428,0.080581,-0.012240,0.996673,0.080552,-0.012428,-0.996673,-0.212526,0.001396,-0.059647,-0.005603,-0.002092,0.000059,346.375763,350.838562,-1.000000,0.000000,0.000000
482149742.225606,0.222946,-0.010956,-1.058640,0.080660,0.012420,0.001816,0.996745,0.002811,-0.080566,-0.001816,0.999921,0.012420,0.080595,-0.012233,0.996672,0.080566,-0.012420,-0.996672,-0.235366,0.003753,-0.068620,-0.001897,0.003697,-0.001146,346.375763,350.838562,-1.000000,0.000000,0.000000
482149742.236860,0.143799,-0.012558,-1.078827,0.080687,0.012481,0.001921,0.996743,0.002921,-0.080593,-0.001921,0.999920,0.012481,0.080623,-0.012286,0.996669,0.080593,-0.012481,-0.996669,0.070148,-0.004075,-0.067403,-0.001935,0.001435,0.004998,346.375763,350.838562,-1.000000,0.000000,0.000000
482149742.246034,0.145554,-0.008484,-1.059189,0.080687,0.012481,0.001921,0.996743,0.002921,-0.080593,-0.001921,0.999920,0.012481,0.080623,-0.012286,0.996669,0.080593,-0.012481,-0.996669,0.070148,-0.004075,-0.067403,-0.001935,0.001435,0.004998,346.375763,350.838562,-1.000000,0.000000,0.000000
482149742.256189,-0.090088,-0.016953,-1.074631,0.080673,0.012461,0.001900,0.996744,0.002898,-0.080579,-0.001900,0.999921,0.012461,0.080608,-0.012267,0.996670,0.080579,-0.012461,-0.996670,0.142367,0.001505,-0.061969,0.000563,-0.002096,-0.004844,346.375763,350.838562,-1.000000,0.000000,0.000000
482149742.267481,-0.090088,-0.016953,-1.074631,0.080673,0.012461,0.001900,0.996744,0.002898,-0.080579,-0.001900,0.999921,0.012461,0.080608,-0.012267,0.996670,0.080579,-0.012461,-0.996670,0.142367,0.001505,-0.061969,0.000563,-0.002096,-0.004844,346.375763,350.838562,-1.000000,0.000000,0.000000
482149742.276044,-0.205429,-0.010544,-1.047043,0.080689,0.012466,0.001823,0.996743,0.002822,-0.080595,-0.001823,0.999921,0.012465,0.080624,-0.012278,0.996669,0.080595,-0.012465,-0.996669,0.063204,-0.000092,-0.082158,0.005477,0.003765,0.001343,346.375763,350.838562,-1.000000,0.000000,0.000000
482149742.285731,-0.138992,-0.012787,-1.041672,0.080709,0.012518,0.001808,0.996741,0.002811,-0.080615,-0.001808,0.999920,0.012518,0.080644,-0.012331,0.996667,0.080615,-0.012518,-0.996667,0.064939,0.004034,-0.062522,0.006727,0.002577,-0.003578,346.375763,350.838562,-1.000000,0.000000,0.000000
482149742.296313,-0.105118,-0.011642,-1.068863,0.080730,0.012470,0.001753,0.996740,0.002753,-0.080636,-0.001753,0.999921,0.012470,0.080664,-0.012288,0.996666,0.080636,-0.012470,-0.996666,-0.286066,0.001926,-0.050377,0.003030,0.000231,-0.004830,346.375763,350.838562,-1.000000,0.000000,0.000000
482149742.306203,-0.031982,-0.008926,-1.044800,0.080730,0.012470,0.001753,0.996740,0.002753,-0.080636,-0.001753,0.999921,0.012470,0.080664,-0.012288,0.996666,0.080636,-0.012470,-0.996666,-0.286066,0.001926,-0.050377,0.003030,0.000231,-0.004830,346.375763,350.838562,-1.000000,0.000000,0.000000
482149742.316034,0.153854,-0.013840,-1.094437,0.080738,0.012471,0.001772,0.996739,0.002772,-0.080644,-0.001771,0.999921,0.012471,0.080673,-0.012287,0.996665,0.080644,-0.012471,-0.996665,-0.219637,-0.000316,-0.045007,-0.000694,0.002577,0.002543,346.375763,350.838562,-1.000000,0.000000,0.000000
482149742.326343,0.210907,-0.009659,-1.045975,0.080732,0.012508,0.001800,0.996740,0.002803,-0.080638,-0.001800,0.999920,0.012508,0.080667,-0.012322,0.996665,0.080638,-0.012508,-0.996665,-0.112621,0.003581,-0.048135,-0.000707,-0.003165,0.006227,346.375763,350.838562,-1.000000,0.000000,0.000000
482149742.335542,0.084137,-0.002533,-1.087082,0.080732,0.012508,0.001800,0.996740,0.002803,-0.080638,-0.001800,0.999920,0.012508,0.080667,-0.012322,0.996665,0.080638,-0.012508,-0.996665,-0.112621,0.003581,-0.048135,-0.000707,-0.003165,0.006227,346.375763,350.838562,-1.000000,0.000000,0.000000
482149742.345860,0.058426,-0.007935,-1.079437,0.080741,0.012561,0.001791,0.996739,0.002798,-0.080647,-0.001791,0.999920,0.012561,0.080675,-0.012375,0.996664,0.080647,-0.012561,-0.996664,0.073208,-0.001279,-0.097773,0.005496,0.000248,-0.004818,346.375763,350.838562,-1.000000,0.000000,0.000000
482149742.356133,-0.054611,-0.011566,-1.060654,0.080712,0.012608,0.001867,0.996741,0.002878,-0.080618,-0.001867,0.999919,0.012607,0.080648,-0.012416,0.996665,0.080618,-0.012607,-0.996665,0.130289,0.002948,-0.049309,0.005450,-0.007720,0.008710,346.375763,350.838562,-1.000000,0.000000,0.000000
482149742.366561,-0.054611,-0.011566,-1.060654,0.080712,0.012608,0.001867,0.996741,0.002878,-0.080618,-0.001867,0.999919,0.012607,0.080648,-0.012416,0.996665,0.080618,-0.012607,-0.996665,0.130289,0.002948,-0.049309,0.005450,-0.007720,0.008710,346.375763,350.838562,-1.000000,0.000000,0.000000
482149742.375451,-0.195374,-0.008926,-1.072464,0.080708,0.012592,0.001905,0.996741,0.002914,-0.080614,-0.001905,0.999919,0.012591,0.080645,-0.012397,0.996666,0.080614,-0.012591,-0.996666,0.003523,0.010059,-0.090416,-0.001923,0.000248,0.001303,346.375763,350.838562,-1.000000,0.000000,0.000000
482149742.386124,-0.130920,-0.010162,-1.070999,0.080703,0.012681,0.001828,0.996742,0.002844,-0.080609,-0.001828,0.999918,0.012680,0.080638,-0.012492,0.996665,0.080609,-0.012680,-0.996665,-0.135220,0.001114,-0.063989,0.000543,-0.002044,0.001310,346.375763,350.838562,-1.000000,0.000000,0.000000
482149742.396063,-0.083359,-0.008102,-1.071655,0.080703,0.012681,0.001828,0.996742,0.002844,-0.080609,-0.001828,0.999918,0.012680,0.080638,-0.012492,0.996665,0.080609,-0.012680,-0.996665,-0.135220,0.001114,-0.063989,0.000543,-0.002044,0.001310,346.375763,350.838562,-1.000000,0.000000,0.000000
482149742.405825,-0.045731,-0.014618,-1.043945,0.080677,0.012688,0.001852,0.996744,0.002869,-0.080583,-0.001852,0.999918,0.012688,0.080613,-0.012497,0.996667,0.080583,-0.012688,-0.996667,-0.275957,0.003761,-0.075797,0.000543,-0.002044,0.001310,346.375763,350.838562,-1.000000,0.000000,0.000000
482149742.416195,0.183426,-0.009399,-1.085373,0.080598,0.012711,0.001858,0.996750,0.002875,-0.080504,-0.001858,0.999918,0.012711,0.080534,-0.012520,0.996673,0.080504,-0.012711,-0.996673,-0.163863,0.004608,-0.074982,0.006706,0.001475,0.002575,346.375763,350.838562,-1.000000,0.000000,0.000000
482149742.427032,0.249588,-0.010391,-1.044724,0.080598,0.012711,0.001858,0.996750,0.002875,-0.080504,-0.001858,0.999918,0.012711,0.080534,-0.012520,0.996673,0.080504,-0.012711,-0.996673,-0.163863,0.004608,-0.074982,0.006706,0.001475,0.002575,346.375763,350.838562,-1.000000,0.000000,0.000000
482149742.435992,0.133774,-0.021011,-1.035782,0.080601,0.012750,0.001910,0.996750,0.002930,-0.080507,-0.001909,0.999917,0.012750,0.080538,-0.012555,0.996673,0.080507,-0.012750,-0.996673,-0.163866,0.004648,-0.074983,0.000520,0.001483,0.008702,346.375763,350.838562,-1.000000,0.000000,0.000000
482149742.446081,0.020615,-0.002228,-1.076752,0.080583,0.012800,0.001949,0.996751,0.002973,-0.080490,-0.001949,0.999916,0.012800,0.080521,-0.012602,0.996673,0.080490,-0.012800,-0.996673,0.102936,0.003401,-0.088700,-0.004402,-0.000892,0.004983,346.375763,350.838562,-1.000000,0.000000,0.000000
482149742.457665,-0.089371,-0.013763,-1.042282,0.080552,0.012840,0.002007,0.996753,0.003034,-0.080458,-0.002007,0.999916,0.012840,0.080490,-0.012637,0.996675,0.080458,-0.012840,-0.996675,0.169130,0.002449,-0.048048,0.007918,-0.003083,0.008728,346.375763,350.838562,-1.000000,0.000000,0.000000
482149742.470066,-0.201385,-0.003906,-1.082291,0.080485,0.012931,0.002026,0.996759,0.003059,-0.080391,-0.002026,0.999914,0.012930,0.080424,-0.012725,0.996680,0.080391,-0.012930,-0.996680,-0.059776,0.010702,-0.080072,0.012879,-0.005431,0.000130,346.375763,350.838562,-1.000000,0.000000,0.000000
482149742.475641,-0.201385,-0.003906,-1.082291,0.080485,0.012931,0.002026,0.996759,0.003059,-0.080391,-0.002026,0.999914,0.012930,0.080424,-0.012725,0.996680,0.080391,-0.012930,-0.996680,-0.059776,0.010702,-0.080072,0.012879,-0.005431,0.000130,346.375763,350.838562,-1.000000,0.000000,0.000000
482149742.487460,-0.081467,-0.005173,-1.069672,0.080459,0.012950,0.002049,0.996761,0.003083,-0.080365,-0.002049,0.999914,0.012949,0.080398,-0.012743,0.996681,0.080365,-0.012949,-0.996681,-0.169736,-0.000814,-0.045601,-0.001928,-0.002051,0.002530,346.375763,350.838562,-1.000000,0.000000,0.000000
482149742.495924,-0.081467,-0.005173,-1.069672,0.080459,0.012950,0.002049,0.996761,0.003083,-0.080365,-0.002049,0.999914,0.012949,0.080398,-0.012743,0.996681,0.080365,-0.012949,-0.996681,-0.169736,-0.000814,-0.045601,-0.001928,-0.002051,0.002530,346.375763,350.838562,-1.000000,0.000000,0.000000
482149742.506078,-0.111053,-0.015411,-1.055191,0.080480,0.012925,0.002137,0.996759,0.003169,-0.080386,-0.002136,0.999914,0.012925,0.080421,-0.012711,0.996680,0.080386,-0.012925,-0.996680,-0.281772,0.009018,-0.085611,-0.000703,-0.000866,0.004999,346.375763,350.838562,-1.000000,0.000000,0.000000
482149742.516135,0.052292,-0.003784,-1.068695,0.080460,0.012931,0.002143,0.996760,0.003175,-0.080367,-0.002143,0.999914,0.012930,0.080401,-0.012716,0.996682,0.080367,-0.012930,-0.996682,-0.213377,-0.000009,-0.048851,-0.000682,0.001391,-0.001152,346.375763,350.838562,-1.000000,0.000000,0.000000
482149742.526165,0.162613,-0.006119,-1.098267,0.080460,0.012931,0.002143,0.996760,0.003175,-0.080367,-0.002143,0.999914,0.012930,0.080401,-0.012716,0.996682,0.080367,-0.012930,-0.996682,-0.213377,-0.000009,-0.048851,-0.000682,0.001391,-0.001152,346.375763,350.838562,-1.000000,0.000000,0.000000
482149742.535840,0.179108,-0.009964,-1.035431,0.080448,0.012903,0.002116,0.996761,0.003146,-0.080355,-0.002116,0.999915,0.012903,0.080388,-0.012691,0.996683,0.080355,-0.012903,-0.996683,-0.191408,-0.002508,-0.058508,-0.000686,0.000246,0.000077,346.375763,350.838562,-1.000000,0.000000,0.000000
482149742.546643,0.128922,-0.009354,-1.089691,0.080456,0.012920,0.002188,0.996761,0.003219,-0.080362,-0.002188,0.999914,0.012920,0.080397,-0.012702,0.996682,0.080362,-0.012920,-0.996682,-0.028070,0.009136,-0.072013,-0.001951,0.000321,0.009920,346.375763,350.838562,-1.000000,0.000000,0.000000
482149742.556224,-0.021988,-0.008209,-1.059448,0.080456,0.012920,0.002188,0.996761,0.003219,-0.080362,-0.002188,0.999914,0.012920,0.080397,-0.012702,0.996682,0.080362,-0.012920,-0.996682,-0.028070,0.009136,-0.072013,-0.001951,0.000321,0.009920,346.375763,350.838562,-1.000000,0.000000,0.000000
482149742.566061,-0.149811,-0.009750,-1.065262,0.080450,0.012984,0.002179,0.996761,0.003215,-0.080356,-0.002178,0.999913,0.012984,0.080391,-0.012767,0.996682,0.080356,-0.012984,-0.996682,0.098751,0.003020,-0.038749,0.007963,0.001421,-0.004806,346.375763,350.838562,-1.000000,0.000000,0.000000
482149742.575711,-0.149811,-0.009750,-1.065262,0.080458,0.012984,0.002185,0.996760,0.003222,-0.080364,-0.002185,0.999913,0.012984,0.080399,-0.012766,0.996681,0.080364,-0.012984,-0.996681,0.048557,0.003630,-0.093010,0.000559,-0.000931,-0.003613,346.375763,350.838562,-1.000000,0.000000,0.000000
482149742.585799,-0.169662,-0.006454,-1.073242,0.080458,0.012984,0.002185,0.996760,0.003222,-0.080364,-0.002185,0.999913,0.012984,0.080399,-0.012766,0.996681,0.080364,-0.012984,-0.996681,0.048557,0.003630,-0.093010,0.000559,-0.000931,-0.003613,346.375763,350.838562,-1.000000,0.000000,0.000000
482149742.595943,-0.132965,-0.010071,-1.063187,0.080424,0.012988,0.002091,0.996763,0.003127,-0.080331,-0.002090,0.999913,0.012987,0.080364,-0.012777,0.996684,0.080331,-0.012987,-0.996684,-0.102319,0.004778,-0.062765,0.003034,-0.000934,-0.006064,346.375763,350.838562,-1.000000,0.000000,0.000000
482149742.605667,-0.146790,-0.010803,-1.065247,0.080393,0.013025,0.002040,0.996766,0.003080,-0.080300,-0.002040,0.999913,0.013025,0.080333,-0.012819,0.996686,0.080300,-0.013025,-0.996686,-0.230111,0.003274,-0.068576,-0.000659,-0.003291,-0.008546,346.375763,350.838562,-1.000000,0.000000,0.000000
482149742.616786,-0.005234,-0.006516,-1.053436,0.080393,0.013025,0.002040,0.996766,0.003080,-0.080300,-0.002040,0.999913,0.013025,0.080333,-0.012819,0.996686,0.080300,-0.013025,-0.996686,-0.230111,0.003274,-0.068576,-0.000659,-0.003291,-0.008546,346.375763,350.838562,-1.000000,0.000000,0.000000
482149742.626129,0.206955,-0.003769,-1.067581,0.080387,0.013046,0.002088,0.996766,0.003129,-0.080294,-0.002088,0.999913,0.013045,0.080327,-0.012835,0.996686,0.080294,-0.013045,-0.996686,-0.213259,0.002974,-0.066501,0.002994,-0.000830,0.006247,346.375763,350.838562,-1.000000,0.000000,0.000000
482149742.636026,0.160400,-0.013580,-1.038528,0.080412,0.013055,0.002065,0.996764,0.003107,-0.080319,-0.002064,0.999913,0.013055,0.080352,-0.012847,0.996684,0.080319,-0.013055,-0.996684,-0.227108,0.002251,-0.068563,0.000564,0.003678,-0.004836,346.375763,350.838562,-1.000000,0.000000,0.000000
482149742.646663,0.157669,-0.010849,-1.082657,0.080379,0.013145,0.002005,0.996767,0.003054,-0.080285,-0.002005,0.999912,0.013145,0.080318,-0.012941,0.996685,0.080285,-0.013145,-0.996685,0.126670,0.009376,-0.070896,0.000547,-0.000899,0.000080,346.375763,350.838562,-1.000000,0.000000,0.000000
482149742.656198,-0.004257,-0.007462,-1.044601,0.080379,0.013145,0.002005,0.996767,0.003054,-0.080285,-0.002005,0.999912,0.013145,0.080318,-0.012941,0.996685,0.080285,-0.013145,-0.996685,0.126670,0.009376,-0.070896,0.000547,-0.000899,0.000080,346.375763,350.838562,-1.000000,0.000000,0.000000
482149742.665857,-0.116913,-0.011505,-1.080719,0.080376,0.013226,0.002042,0.996767,0.003097,-0.080282,-0.002042,0.999910,0.013225,0.080316,-0.013019,0.996684,0.080282,-0.013225,-0.996684,0.080118,-0.000355,-0.041844,0.010397,0.000367,0.005052,346.375763,350.838562,-1.000000,0.000000,0.000000
482149742.677177,-0.237167,-0.007996,-1.055115,0.080348,0.013283,0.002027,0.996770,0.003087,-0.080254,-0.002027,0.999910,0.013283,0.080288,-0.013077,0.996686,0.080254,-0.013283,-0.996686,0.077415,0.002434,-0.085971,0.000523,0.000318,0.007469,346.375763,350.838562,-1.000000,0.000000,0.000000
482149742.685487,-0.237167,-0.007996,-1.055115,0.080348,0.013283,0.002027,0.996770,0.003087,-0.080254,-0.002027,0.999910,0.013283,0.080288,-0.013077,0.996686,0.080254,-0.013283,-0.996686,0.077415,0.002434,-0.085971,0.000523,0.000318,0.007469,346.375763,350.838562,-1.000000,0.000000,0.000000
482149742.696020,-0.124176,-0.007202,-1.054306,0.080394,0.013241,0.002115,0.996766,0.003172,-0.080300,-0.002115,0.999910,0.013241,0.080335,-0.013028,0.996683,0.080300,-0.013241,-0.996683,-0.084558,0.005779,-0.047919,-0.006875,0.006039,0.007444,346.375763,350.838562,-1.000000,0.000000,0.000000
482149742.705836,0.006729,-0.003876,-1.068039,0.080382,0.013229,0.002208,0.996766,0.003263,-0.080288,-0.002207,0.999910,0.013229,0.080324,-0.013009,0.996684,0.080288,-0.013229,-0.996684,-0.317455,0.005233,-0.058431,-0.001939,0.001445,0.006228,346.375763,350.838562,-1.000000,0.000000,0.000000
482149742.716230,0.161392,-0.004898,-1.068878,0.080382,0.013229,0.002208,0.996766,0.003263,-0.080288,-0.002207,0.999910,0.013229,0.080324,-0.013009,0.996684,0.080288,-0.013229,-0.996684,-0.317455,0.005233,-0.058431,-0.001939,0.001445,0.006228,346.375763,350.838562,-1.000000,0.000000,0.000000
482149742.725833,0.228714,-0.003174,-1.062515,0.080423,0.013245,0.002261,0.996763,0.003318,-0.080329,-0.002261,0.999910,0.013244,0.080366,-0.013020,0.996680,0.080329,-0.013244,-0.996680,-0.204505,0.006042,-0.057626,-0.003168,0.004890,0.004997,346.375763,350.838562,-1.000000,0.000000,0.000000
482149742.736009,0.154633,-0.011703,-1.070908,0.080400,0.013304,0.002270,0.996765,0.003331,-0.080307,-0.002270,0.999909,0.013304,0.080344,-0.013078,0.996681,0.080307,-0.013304,-0.996681,0.081086,0.008406,-0.072197,0.005492,0.001414,-0.003587,346.375763,350.838562,-1.000000,0.000000,0.000000
482149742.746182,0.151489,-0.010513,-1.051315,0.080400,0.013304,0.002270,0.996765,0.003331,-0.080307,-0.002270,0.999909,0.013304,0.080344,-0.013078,0.996681,0.080307,-0.013304,-0.996681,0.081086,0.008406,-0.072197,0.005492,0.001414,-0.003587,346.375763,350.838562,-1.000000,0.000000,0.000000
482149742.755754,0.046585,-0.013565,-1.067764,0.080386,0.013342,0.002304,0.996766,0.003368,-0.080292,-0.002304,0.999908,0.013342,0.080330,-0.013114,0.996682,0.080292,-0.013342,-0.996682,0.081100,0.008444,-0.072196,0.002985,-0.000809,0.008709,346.375763,350.838562,-1.000000,0.000000,0.000000
482149742.766135,-0.074295,-0.017166,-1.061768,0.080301,0.013377,0.002387,0.996772,0.003452,-0.080207,-0.002387,0.999908,0.013377,0.080246,-0.013142,0.996688,0.080207,-0.013377,-0.996688,0.074425,0.001673,-0.074219,-0.001933,-0.006660,0.003753,346.375763,350.838562,-1.000000,0.000000,0.000000
482149742.777652,-0.139160,-0.003906,-1.049484,0.080303,0.013414,0.002409,0.996772,0.003477,-0.080210,-0.002409,0.999907,0.013414,0.080249,-0.013177,0.996688,0.080210,-0.013414,-0.996688,0.071279,0.002901,-0.054628,0.004247,0.002591,0.000103,346.375763,350.838562,-1.000000,0.000000,0.000000
482149742.785464,-0.139160,-0.003906,-1.049484,0.080303,0.013414,0.002409,0.996772,0.003477,-0.080210,-0.002409,0.999907,0.013414,0.080249,-0.013177,0.996688,0.080210,-0.013414,-0.996688,0.071279,0.002901,-0.054628,0.004247,0.002591,0.000103,0.000000,0.000000,-1.000000,0.000000,0.000000
482149742.796954,-0.121902,-0.012344,-1.075851,0.080375,0.013337,0.002440,0.996766,0.003503,-0.080281,-0.002440,0.999908,0.013337,0.080321,-0.013098,0.996683,0.080281,-0.013337,-0.996683,-0.154576,-0.003829,-0.065085,-0.001910,0.005990,-0.002382,0.000000,0.000000,-1.000000,0.000000,0.000000
482149742.807851,-0.053741,-0.010498,-1.046936,0.080375,0.013337,0.002440,0.996766,0.003503,-0.080281,-0.002440,0.999908,0.013337,0.080321,-0.013098,0.996683,0.080281,-0.013337,-0.996683,-0.154576,-0.003829,-0.065085,-0.001910,0.005990,-0.002382,0.000000,0.000000,-1.000000,0.000000,0.000000
482149742.815996,0.122025,-0.014130,-1.079971,0.080383,0.013358,0.002422,0.996765,0.003487,-0.080289,-0.002422,0.999908,0.013358,0.080328,-0.013120,0.996682,0.080289,-0.013358,-0.996682,-0.219449,0.009451,-0.052802,0.000445,-0.003262,-0.002341,345.696838,350.159637,-1.000000,0.000000,0.000000
482149742.825870,0.190979,-0.002396,-1.055923,0.080361,0.013479,0.002319,0.996768,0.003394,-0.080267,-0.002319,0.999906,0.013479,0.080305,-0.013249,0.996682,0.080267,-0.013479,-0.996682,-0.202169,0.001134,-0.079169,0.005380,0.002547,-0.002309,345.696838,350.159637,-1.000000,0.000000,0.000000
482149742.836149,0.131744,-0.001511,-1.093597,0.080363,0.013478,0.002333,0.996767,0.003407,-0.080269,-0.002332,0.999906,0.013478,0.080307,-0.013247,0.996682,0.080269,-0.013478,-0.996682,-0.134010,0.002980,-0.050254,-0.000807,0.001401,0.003816,345.696838,350.159637,-1.000000,0.000000,0.000000
482149742.846309,0.134537,-0.008194,-1.046524,0.080363,0.013478,0.002333,0.996767,0.003407,-0.080269,-0.002332,0.999906,0.013478,0.080307,-0.013247,0.996682,0.080269,-0.013478,-0.996682,-0.134010,0.002980,-0.050254,-0.000807,0.001401,0.003816,345.696838,350.159637,-1.000000,0.000000,0.000000
482149742.856015,0.053513,-0.008820,-1.081451,0.080349,0.013491,0.002466,0.996768,0.003541,-0.080256,-0.002466,0.999906,0.013491,0.080296,-0.013249,0.996683,0.080256,-0.013491,-0.996683,0.110723,0.011095,-0.059240,0.001644,0.004924,0.008757,345.696838,350.159637,-1.000000,0.000000,0.000000
482149742.866047,-0.172592,-0.006424,-1.076218,0.080340,0.013446,0.002453,0.996769,0.003524,-0.080246,-0.002452,0.999907,0.013446,0.080286,-0.013206,0.996684,0.080246,-0.013446,-0.996684,0.051498,0.011935,-0.096913,-0.004484,-0.000998,-0.003591,345.696838,350.159637,-1.000000,0.000000,0.000000
482149742.876334,-0.105270,-0.011505,-1.048279,0.080340,0.013446,0.002453,0.996769,0.003524,-0.080246,-0.002452,0.999907,0.013446,0.080286,-0.013206,0.996684,0.080246,-0.013446,-0.996684,0.051498,0.011935,-0.096913,-0.004484,-0.000998,-0.003591,345.705750,350.168549,-1.000000,0.000000,0.000000
482149742.886025,-0.078339,-0.007278,-1.082397,0.080299,0.013341,0.002457,0.996772,0.003519,-0.080205,-0.002457,0.999908,0.013340,0.080245,-0.013100,0.996689,0.080205,-0.013340,-0.996689,-0.026693,0.004521,-0.084762,0.004133,-0.002049,0.001371,345.705750,350.168549,-1.000000,0.000000,0.000000
482149742.896298,-0.064484,-0.017258,-1.048965,0.080278,0.013324,0.002495,0.996774,0.003556,-0.080185,-0.002495,0.999908,0.013324,0.080225,-0.013081,0.996691,0.080185,-0.013324,-0.996691,-0.252777,0.006900,-0.079527,-0.000816,-0.002043,0.006272,345.705750,350.168549,-1.000000,0.000000,0.000000
482149742.905933,-0.064484,-0.017258,-1.048965,0.080278,0.013324,0.002495,0.996774,0.003556,-0.080185,-0.002495,0.999908,0.013324,0.080225,-0.013081,0.996691,0.080185,-0.013324,-0.996691,-0.252777,0.006900,-0.079527,-0.000816,-0.002043,0.006272,345.705750,350.168549,-1.000000,0.000000,0.000000
482149742.915953,0.074173,-0.004257,-1.075378,0.080243,0.013343,0.002478,0.996777,0.003540,-0.080150,-0.002478,0.999908,0.013343,0.080190,-0.013101,0.996693,0.080150,-0.013343,-0.996693,-0.185420,0.001838,-0.051585,-0.002015,-0.006765,-0.004820,345.715118,350.177917,-1.000000,0.000000,0.000000
482149742.926184,0.190155,-0.012222,-1.046143,0.080229,0.013344,0.002431,0.996778,0.003493,-0.080136,-0.002431,0.999908,0.013344,0.080175,-0.013106,0.996695,0.080136,-0.013344,-0.996695,-0.158474,0.006065,-0.085703,-0.002017,-0.002135,-0.003582,345.715118,350.177917,-1.000000,0.000000,0.000000
482149742.937643,0.109985,-0.005066,-1.092773,0.080229,0.013344,0.002431,0.996778,0.003493,-0.080136,-0.002431,0.999908,0.013344,0.080175,-0.013106,0.996695,0.080136,-0.013344,-0.996695,-0.158474,0.006065,-0.085703,-0.002017,-0.002135,-0.003582,345.715118,350.177917,-1.000000,0.000000,0.000000
482149742.945804,0.128860,-0.015091,-1.059326,0.080176,0.013314,0.002472,0.996782,0.003530,-0.080083,-0.002472,0.999908,0.013313,0.080123,-0.013072,0.996699,0.080083,-0.013313,-0.996699,-0.005910,0.009056,-0.078679,-0.005733,-0.000965,0.001327,345.715118,350.177917,-1.000000,0.000000,0.000000
482149742.956126,0.055328,-0.002914,-1.078461,0.080139,0.013291,0.002511,0.996785,0.003567,-0.080046,-0.002511,0.999909,0.013290,0.080086,-0.013047,0.996703,0.080046,-0.013290,-0.996703,0.110109,0.001068,-0.049440,0.000416,-0.005498,0.006272,345.715118,350.177917,-1.000000,0.000000,0.000000
482149742.966106,-0.167740,0.000351,-1.086929,0.080160,0.013304,0.002494,0.996783,0.003552,-0.080067,-0.002494,0.999908,0.013304,0.080107,-0.013061,0.996701,0.080067,-0.013304,-0.996701,0.048793,-0.001787,-0.062625,-0.002025,-0.002114,-0.001120,345.715118,350.177917,-1.000000,0.000000,0.000000
482149742.976197,-0.107300,-0.012390,-1.039474,0.080160,0.013304,0.002494,0.996783,0.003552,-0.080067,-0.002494,0.999908,0.013304,0.080107,-0.013061,0.996701,0.080067,-0.013304,-0.996701,0.048793,-0.001787,-0.062625,-0.002025,-0.002114,-0.001120,345.724579,350.187378,-1.000000,0.000000,0.000000
482149742.986010,-0.072479,-0.008301,-1.068619,0.080151,0.013338,0.002487,0.996784,0.003547,-0.080058,-0.002487,0.999908,0.013337,0.080098,-0.013095,0.996701,0.080058,-0.013337,-0.996701,-0.024730,0.010423,-0.081760,0.002912,-0.002090,-0.002328,345.724579,350.187378,-1.000000,0.000000,0.000000
482149742.997188,-0.087219,-0.016876,-1.056976,0.080190,0.013400,0.002401,0.996781,0.003466,-0.080097,-0.002401,0.999907,0.013399,0.080136,-0.013164,0.996697,0.080097,-0.013399,-0.996697,-0.247837,0.013750,-0.090232,0.006619,0.008319,-0.003526,345.724579,350.187378,-1.000000,0.000000,0.000000
482149743.006982,-0.087219,-0.016876,-1.056976,0.080190,0.013400,0.002401,0.996781,0.003466,-0.080097,-0.002401,0.999907,0.013399,0.080136,-0.013164,0.996697,0.080097,-0.013399,-0.996697,-0.247837,0.013750,-0.090232,0.006619,0.008319,-0.003526,345.724579,350.187378,-1.000000,0.000000,0.000000
482149743.017499,0.076187,-0.008194,-1.067535,0.080214,0.013382,0.002427,0.996779,0.003492,-0.080121,-0.002427,0.999907,0.013382,0.080161,-0.013144,0.996695,0.080121,-0.013382,-0.996695,-0.187421,0.000992,-0.042779,-0.003275,-0.000926,0.003801,345.724579,350.187378,-1.000000,0.000000,0.000000
482149743.025809,0.214157,-0.018692,-1.052841,0.080190,0.013422,0.002523,0.996781,0.003590,-0.080097,-0.002523,0.999907,0.013422,0.080138,-0.013176,0.996697,0.080097,-0.013422,-0.996697,-0.167317,-0.003455,-0.060280,0.000417,-0.003189,0.006276,345.736542,350.199341,-1.000000,0.000000,0.000000
482149743.036147,0.086121,-0.003540,-1.083145,0.080190,0.013422,0.002523,0.996781,0.003590,-0.080097,-0.002523,0.999907,0.013422,0.080138,-0.013176,0.996697,0.080097,-0.013422,-0.996697,-0.167317,-0.003455,-0.060280,0.000417,-0.003189,0.006276,345.736542,350.199341,-1.000000,0.000000,0.000000
482149743.046068,0.120575,-0.005890,-1.040756,0.080209,0.013421,0.002530,0.996779,0.003597,-0.080116,-0.002530,0.999907,0.013420,0.080157,-0.013175,0.996695,0.080116,-0.013420,-0.996695,-0.003929,0.005227,-0.070840,-0.002023,0.004814,-0.001109,345.736542,350.199341,-1.000000,0.000000,0.000000
482149743.056337,-0.043900,-0.004807,-1.056656,0.080282,0.013475,0.002499,0.996773,0.003571,-0.080188,-0.002498,0.999906,0.013475,0.080229,-0.013231,0.996689,0.080188,-0.013475,-0.996689,0.005932,0.009935,-0.086456,0.007825,0.000307,0.003853,345.736542,350.199341,-1.000000,0.000000,0.000000
482149743.065592,-0.155716,-0.010635,-1.065308,0.080282,0.013475,0.002499,0.996773,0.003571,-0.080188,-0.002498,0.999906,0.013475,0.080229,-0.013231,0.996689,0.080188,-0.013475,-0.996689,0.005932,0.009935,-0.086456,0.007825,0.000307,0.003853,345.736542,350.199341,-1.000000,0.000000,0.000000
482149743.075945,-0.135193,-0.000092,-1.061218,0.080284,0.013485,0.002487,0.996773,0.003560,-0.080190,-0.002487,0.999906,0.013484,0.080231,-0.013241,0.996688,0.080190,-0.013484,-0.996688,0.040385,0.007594,-0.044068,0.000442,0.000213,-0.001105,345.746429,350.209229,-1.000000,0.000000,0.000000
482149743.086213,-0.063461,-0.005661,-1.092056,0.080283,0.013530,0.002492,0.996773,0.003569,-0.080189,-0.002492,0.999905,0.013529,0.080230,-0.013286,0.996688,0.080189,-0.013529,-0.996688,-0.124089,0.008723,-0.059968,-0.002044,0.001402,0.005041,345.746429,350.209229,-1.000000,0.000000,0.000000
482149743.097165,-0.096466,-0.005707,-1.049194,0.080283,0.013530,0.002492,0.996773,0.003569,-0.080189,-0.002492,0.999905,0.013529,0.080230,-0.013286,0.996688,0.080189,-0.013529,-0.996688,-0.124089,0.008723,-0.059968,-0.002044,0.001402,0.005041,345.746429,350.209229,-1.000000,0.000000,0.000000
482149743.106271,-0.096466,-0.005707,-1.049194,0.080307,0.013492,0.002496,0.996771,0.003570,-0.080214,-0.002496,0.999906,0.013492,0.080254,-0.013248,0.996686,0.080214,-0.013492,-0.996686,-0.235929,0.002856,-0.068621,-0.000796,-0.000940,0.000118,345.746429,350.209229,-1.000000,0.000000,0.000000
482149743.115217,0.036575,-0.012329,-1.059021,0.080261,0.013497,0.002456,0.996775,0.003530,-0.080168,-0.002456,0.999906,0.013497,0.080208,-0.013257,0.996690,0.080168,-0.013497,-0.996690,-0.143629,0.007836,-0.095366,0.004136,-0.005524,0.000134,345.746429,350.209229,-1.000000,0.000000,0.000000
482149743.132500,0.202133,-0.009628,-1.066635,0.080230,0.013516,0.002486,0.996778,0.003561,-0.080136,-0.002486,0.999906,0.013516,0.080177,-0.013273,0.996692,0.080136,-0.013516,-0.996692,-0.176602,0.007809,-0.052502,-0.000817,-0.003197,0.006270,345.746429,350.209229,-1.000000,0.000000,0.000000
482149743.135351,0.202133,-0.009628,-1.066635,0.080230,0.013516,0.002486,0.996778,0.003561,-0.080136,-0.002486,0.999906,0.013516,0.080177,-0.013273,0.996692,0.080136,-0.013516,-0.996692,-0.176602,0.007809,-0.052502,-0.000817,-0.003197,0.006270,345.756104,350.218903,-1.000000,0.000000,0.000000
482149743.146182,0.133835,-0.011322,-1.074005,0.080290,0.013586,0.002507,0.996773,0.003589,-0.080197,-0.002507,0.999905,0.013586,0.080238,-0.013341,0.996686,0.080197,-0.013586,-0.996686,0.085254,-0.002131,-0.048663,-0.002033,-0.000939,0.001344,345.756104,350.218903,-1.000000,0.000000,0.000000
482149743.158007,0.000916,-0.014572,-1.052414,0.080247,0.013590,0.002580,0.996776,0.003661,-0.080154,-0.002580,0.999904,0.013590,0.080196,-0.013339,0.996690,0.080154,-0.013590,-0.996690,0.121979,0.003962,-0.069945,0.002879,-0.005470,0.007514,345.756104,350.218903,-1.000000,0.000000,0.000000
482149743.165786,-0.114990,-0.012451,-1.070892,0.080247,0.013590,0.002580,0.996776,0.003661,-0.080154,-0.002580,0.999904,0.013590,0.080196,-0.013339,0.996690,0.080154,-0.013590,-0.996690,0.121979,0.003962,-0.069945,0.002879,-0.005470,0.007514,345.756104,350.218903,-1.000000,0.000000,0.000000
482149743.175902,-0.221329,-0.009232,-1.045212,0.080241,0.013609,0.002551,0.996776,0.003633,-0.080147,-0.002551,0.999904,0.013608,0.080189,-0.013360,0.996690,0.080147,-0.013608,-0.996690,0.053688,0.002286,-0.077315,0.007886,0.001305,-0.014611,345.756104,350.218903,-1.000000,0.000000,0.000000
482149743.186864,-0.106110,-0.012589,-1.063950,0.080237,0.013639,0.002580,0.996777,0.003665,-0.080144,-0.002580,0.999904,0.013639,0.080186,-0.013388,0.996690,0.080144,-0.013639,-0.996690,-0.079228,-0.000933,-0.055724,0.001659,-0.000891,0.003822,345.764526,350.227325,-1.000000,0.000000,0.000000
482149743.198823,-0.107147,-0.011536,-1.061035,0.080237,0.013639,0.002580,0.996777,0.003665,-0.080144,-0.002580,0.999904,0.013639,0.080186,-0.013388,0.996690,0.080144,-0.013639,-0.996690,-0.079228,-0.000933,-0.055724,0.001659,-0.000891,0.003822,345.764526,350.227325,-1.000000,0.000000,0.000000
482149743.206086,-0.107147,-0.011536,-1.061035,0.080225,0.013685,0.002519,0.996778,0.003607,-0.080132,-0.002518,0.999903,0.013685,0.080173,-0.013439,0.996690,0.080132,-0.013685,-0.996690,-0.301460,0.004453,-0.048521,0.002904,0.000241,0.000137,345.764526,350.227325,-1.000000,0.000000,0.000000
482149743.215794,-0.025986,-0.001328,-1.076096,0.080222,0.013707,0.002512,0.996778,0.003602,-0.080128,-0.002512,0.999903,0.013707,0.080170,-0.013461,0.996690,0.080128,-0.013707,-0.996690,-0.186238,0.001118,-0.067259,0.001672,0.003696,0.000137,345.764526,350.227325,-1.000000,0.000000,0.000000
482149743.226091,0.239639,-0.003387,-1.061447,0.080222,0.013707,0.002512,0.996778,0.003602,-0.080128,-0.002512,0.999903,0.013707,0.080170,-0.013461,0.996690,0.080128,-0.013707,-0.996690,-0.186238,0.001118,-0.067259,0.001672,0.003696,0.000137,345.764526,350.227325,-1.000000,0.000000,0.000000
482149743.235831,0.156616,-0.009842,-1.078720,0.080283,0.013820,0.002542,0.996773,0.003642,-0.080189,-0.002542,0.999901,0.013820,0.080232,-0.013571,0.996684,0.080189,-0.013820,-0.996684,-0.187336,0.002284,-0.064351,0.002898,0.008345,0.002612,345.771515,350.234314,-1.000000,0.000000,0.000000
482149743.246216,0.165405,-0.013718,-1.044373,0.080291,0.013880,0.002635,0.996772,0.003740,-0.080197,-0.002635,0.999900,0.013879,0.080241,-0.013623,0.996682,0.080197,-0.013879,-0.996682,-0.106182,0.012552,-0.079413,0.005338,-0.000813,0.009995,345.771515,350.234314,-1.000000,0.000000,0.000000
482149743.256115,0.059479,-0.016739,-1.055923,0.080291,0.013880,0.002635,0.996772,0.003740,-0.080197,-0.002635,0.999900,0.013879,0.080241,-0.013623,0.996682,0.080197,-0.013879,-0.996682,-0.106182,0.012552,-0.079413,0.005338,-0.000813,0.009995,345.771515,350.234314,-1.000000,0.000000,0.000000
482149743.265897,-0.086227,-0.014008,-1.067749,0.080239,0.013879,0.002673,0.996776,0.003777,-0.080145,-0.002673,0.999900,0.013879,0.080189,-0.013620,0.996687,0.080145,-0.013879,-0.996687,0.076471,0.004037,-0.082033,0.005366,-0.004351,0.001372,345.771515,350.234314,-1.000000,0.000000,0.000000
482149743.275972,-0.220200,-0.014252,-1.050079,0.080235,0.013830,0.002684,0.996776,0.003784,-0.080141,-0.002684,0.999901,0.013830,0.080185,-0.013570,0.996688,0.080141,-0.013830,-0.996688,0.085264,0.000112,-0.047685,-0.010663,-0.001010,0.000073,345.771515,350.234314,-1.000000,0.000000,0.000000
482149743.287275,-0.142975,-0.008804,-1.051483,0.080235,0.013830,0.002684,0.996776,0.003784,-0.080141,-0.002684,0.999901,0.013830,0.080185,-0.013570,0.996688,0.080141,-0.013830,-0.996688,0.085264,0.000112,-0.047685,-0.010663,-0.001010,0.000073,345.773895,350.236694,-1.000000,0.000000,0.000000
482149743.295967,-0.113434,-0.002380,-1.044418,0.080278,0.013784,0.002672,0.996773,0.003769,-0.080184,-0.002672,0.999901,0.013783,0.080228,-0.013524,0.996685,0.080184,-0.013783,-0.996685,-0.166412,-0.000224,-0.071064,0.002931,-0.005606,-0.008490,345.773895,350.236694,-1.000000,0.000000,0.000000
482149743.306175,0.102066,-0.008789,-1.079117,0.080297,0.013811,0.002665,0.996771,0.003764,-0.080203,-0.002665,0.999901,0.013811,0.080247,-0.013553,0.996683,0.080203,-0.013811,-0.996683,-0.300403,-0.000441,-0.053396,0.002885,0.002602,0.006295,345.773895,350.236694,-1.000000,0.000000,0.000000
482149743.317894,0.102066,-0.008789,-1.079117,0.080297,0.013811,0.002665,0.996771,0.003764,-0.080203,-0.002665,0.999901,0.013811,0.080247,-0.013553,0.996683,0.080203,-0.013811,-0.996683,-0.300403,-0.000441,-0.053396,0.002885,0.002602,0.006295,345.773895,350.236694,-1.000000,0.000000,0.000000
482149743.328388,0.180206,-0.008118,-1.053070,0.080296,0.013808,0.002662,0.996772,0.003761,-0.080202,-0.002662,0.999901,0.013807,0.080246,-0.013549,0.996683,0.080202,-0.013807,-0.996683,-0.223177,0.005003,-0.054800,0.002902,-0.006688,0.000126,345.773895,350.236694,-1.000000,0.000000,0.000000
482149743.335699,0.128967,-0.007446,-1.102432,0.080276,0.013835,0.002649,0.996773,0.003750,-0.080182,-0.002649,0.999901,0.013835,0.080226,-0.013577,0.996684,0.080182,-0.013835,-0.996684,-0.193616,0.011454,-0.047734,0.004149,-0.002092,-0.003555,345.777466,350.240265,-1.000000,0.000000,0.000000
482149743.346478,0.148499,-0.009506,-1.053299,0.080303,0.013867,0.002637,0.996771,0.003741,-0.080209,-0.002637,0.999900,0.013866,0.080253,-0.013610,0.996682,0.080209,-0.013866,-0.996682,0.099998,0.005749,-0.056388,-0.005738,-0.002110,0.002556,345.777466,350.240265,-1.000000,0.000000,0.000000
482149743.356265,0.057312,-0.000031,-1.087280,0.080303,0.013867,0.002637,0.996771,0.003741,-0.080209,-0.002637,0.999900,0.013866,0.080253,-0.013610,0.996682,0.080209,-0.013866,-0.996682,0.099998,0.005749,-0.056388,-0.005738,-0.002110,0.002556,345.777466,350.240265,-1.000000,0.000000,0.000000
482149743.366011,-0.078705,-0.008865,-1.025543,0.080333,0.013843,0.002664,0.996769,0.003766,-0.080239,-0.002664,0.999901,0.013843,0.080283,-0.013584,0.996680,0.080239,-0.013843,-0.996680,0.048729,0.006396,-0.105753,-0.000811,0.003720,0.005049,345.777466,350.240265,-1.000000,0.000000,0.000000
482149743.375972,-0.180374,-0.013214,-1.076279,0.080365,0.013852,0.002666,0.996766,0.003769,-0.080271,-0.002666,0.999901,0.013851,0.080315,-0.013592,0.996677,0.080271,-0.013851,-0.996677,-0.022959,0.013821,-0.090603,0.004141,-0.002071,-0.001093,345.777466,350.240265,-1.000000,0.000000,0.000000
482149743.386317,-0.125854,-0.012283,-1.076843,0.080365,0.013852,0.002666,0.996766,0.003769,-0.080271,-0.002666,0.999901,0.013851,0.080315,-0.013592,0.996677,0.080271,-0.013851,-0.996677,-0.022959,0.013821,-0.090603,0.004141,-0.002071,-0.001093,345.778320,350.241119,-1.000000,0.000000,0.000000
482149743.396024,-0.055603,-0.011536,-1.058701,0.080378,0.013805,0.002635,0.996765,0.003735,-0.080284,-0.002634,0.999901,0.013805,0.080328,-0.013549,0.996676,0.080284,-0.013805,-0.996676,-0.158989,0.004940,-0.028867,-0.006941,0.004737,-0.006056,345.778320,350.241119,-1.000000,0.000000,0.000000
482149743.406636,0.084076,-0.003433,-1.074341,0.080326,0.013847,0.002754,0.996769,0.003856,-0.080232,-0.002754,0.999900,0.013847,0.080277,-0.013581,0.996680,0.080232,-0.013847,-0.996680,-0.260606,0.000633,-0.079599,-0.000810,-0.006683,0.003802,345.778320,350.241119,-1.000000,0.000000,0.000000
482149743.416463,0.084076,-0.003433,-1.074341,0.080326,0.013847,0.002754,0.996769,0.003856,-0.080232,-0.002754,0.999900,0.013847,0.080277,-0.013581,0.996680,0.080232,-0.013847,-0.996680,-0.260606,0.000633,-0.079599,-0.000810,-0.006683,0.003802,345.778320,350.241119,-1.000000,0.000000,0.000000
482149743.425458,0.186249,-0.013184,-1.052063,0.080305,0.013843,0.002797,0.996770,0.003899,-0.080211,-0.002797,0.999900,0.013842,0.080257,-0.013573,0.996682,0.080211,-0.013842,-0.996682,-0.206066,0.001559,-0.080161,-0.005741,0.000210,0.003790,345.778320,350.241119,-1.000000,0.000000,0.000000
482149743.436021,0.098862,-0.000732,-1.072266,0.080360,0.013818,0.002838,0.996766,0.003938,-0.080266,-0.002837,0.999901,0.013818,0.080312,-0.013545,0.996678,0.080266,-0.013818,-0.996678,0.003810,0.010385,-0.077663,0.012778,0.000289,-0.002281,345.778320,350.241119,-1.000000,0.000000,0.000000
482149743.446145,0.126846,-0.015045,-1.055435,0.080360,0.013818,0.002838,0.996766,0.003938,-0.080266,-0.002837,0.999901,0.013818,0.080312,-0.013545,0.996678,0.080266,-0.013818,-0.996678,0.003810,0.010385,-0.077663,0.012778,0.000289,-0.002281,345.778290,350.241089,-1.000000,0.000000,0.000000
482149743.456749,0.064178,0.003784,-1.092117,0.080362,0.013827,0.002814,0.996766,0.003915,-0.080268,-0.002814,0.999900,0.013826,0.080314,-0.013556,0.996677,0.080268,-0.013826,-0.996677,0.105981,0.000643,-0.055386,-0.000793,-0.003261,-0.001117,345.778290,350.241089,-1.000000,0.000000,0.000000
482149743.465986,-0.063644,-0.015152,-1.032288,0.080322,0.013851,0.002707,0.996769,0.003809,-0.080228,-0.002706,0.999900,0.013851,0.080273,-0.013589,0.996680,0.080228,-0.013851,-0.996680,0.046618,-0.001195,-0.058755,-0.006947,-0.001027,-0.004835,345.778290,350.241089,-1.000000,0.000000,0.000000
482149743.477680,-0.185272,-0.011215,-1.089050,0.080324,0.013825,0.002704,0.996769,0.003804,-0.080230,-0.002704,0.999901,0.013825,0.080275,-0.013563,0.996680,0.080230,-0.013825,-0.996680,0.046616,-0.001221,-0.058755,-0.000796,0.002523,0.000123,345.778290,350.241089,-1.000000,0.000000,0.000000
482149743.485753,-0.091476,0.000931,-1.077560,0.080324,0.013825,0.002704,0.996769,0.003804,-0.080230,-0.002704,0.999901,0.013825,0.080275,-0.013563,0.996680,0.080230,-0.013825,-0.996680,0.046616,-0.001221,-0.058755,-0.000796,0.002523,0.000123,345.778290,350.241089,-1.000000,0.000000,0.000000
482149743.496115,-0.091232,-0.015778,-1.053070,0.080311,0.013819,0.002827,0.996770,0.003926,-0.080217,-0.002826,0.999901,0.013819,0.080263,-0.013547,0.996682,0.080217,-0.013819,-0.996682,-0.143861,-0.001333,-0.035606,-0.000820,0.000277,0.007505,345.783539,350.246338,-1.000000,0.000000,0.000000
482149743.507620,0.071381,-0.013092,-1.071503,0.080273,0.013831,0.002851,0.996773,0.003951,-0.080180,-0.002851,0.999900,0.013831,0.080226,-0.013558,0.996684,0.080180,-0.013831,-0.996684,-0.265452,0.002616,-0.092366,0.002887,-0.005492,0.005051,345.783539,350.246338,-1.000000,0.000000,0.000000
482149743.515693,0.204208,-0.016541,-1.054886,0.080273,0.013831,0.002851,0.996773,0.003951,-0.080180,-0.002851,0.999900,0.013831,0.080226,-0.013558,0.996684,0.080180,-0.013831,-0.996684,-0.265452,0.002616,-0.092366,0.002887,-0.005492,0.005051,345.783539,350.246338,-1.000000,0.000000,0.000000
482149743.526173,0.089920,0.000412,-1.075272,0.080317,0.013877,0.002862,0.996769,0.003966,-0.080223,-0.002862,0.999900,0.013876,0.080270,-0.013602,0.996680,0.080223,-0.013876,-0.996680,-0.171456,-0.001901,-0.056390,0.005362,0.000278,0.002609,345.783539,350.246338,-1.000000,0.000000,0.000000
482149743.538231,0.123840,-0.016891,-1.045654,0.080309,0.013941,0.002858,0.996770,0.003967,-0.080215,-0.002858,0.999899,0.013940,0.080262,-0.013666,0.996680,0.080215,-0.013940,-0.996680,-0.008834,0.000848,-0.074823,0.005370,0.000258,0.000147,345.783539,350.246338,-1.000000,0.000000,0.000000
482149743.545987,0.123840,-0.016891,-1.045654,0.080309,0.013941,0.002858,0.996770,0.003967,-0.080215,-0.002858,0.999899,0.013940,0.080262,-0.013666,0.996680,0.080215,-0.013940,-0.996680,-0.008834,0.000848,-0.074823,0.005370,0.000258,0.000147,345.786316,350.249115,-1.000000,0.000000,0.000000
482149743.555691,0.092072,-0.005600,-1.078201,0.080286,0.014078,0.002892,0.996771,0.004012,-0.080192,-0.002892,0.999897,0.014078,0.080240,-0.013800,0.996680,0.080192,-0.014078,-0.996680,0.009728,0.014490,-0.078592,0.013983,-0.003093,0.006336,345.786316,350.249115,-1.000000,0.000000,0.000000
482149743.565020,-0.031891,-0.008026,-1.059509,0.080254,0.014128,0.002932,0.996774,0.004055,-0.080160,-0.002931,0.999896,0.014127,0.080209,-0.013847,0.996682,0.080160,-0.014127,-0.996682,0.009760,0.014539,-0.078590,0.001658,-0.003201,0.003818,345.786316,350.249115,-1.000000,0.000000,0.000000
482149743.575526,-0.137070,-0.005005,-1.060272,0.080254,0.014128,0.002932,0.996774,0.004055,-0.080160,-0.002931,0.999896,0.014127,0.080209,-0.013847,0.996682,0.080160,-0.014127,-0.996682,0.009760,0.014539,-0.078590,0.001658,-0.003201,0.003818,345.786316,350.249115,-1.000000,0.000000,0.000000
482149743.585920,-0.096161,-0.005997,-1.091339,0.080218,0.014064,0.003011,0.996776,0.004128,-0.080124,-0.003011,0.999897,0.014064,0.080174,-0.013777,0.996686,0.080124,-0.014064,-0.996686,0.011947,0.008464,-0.081516,0.000437,-0.000932,0.000123,345.786316,350.249115,-1.000000,0.000000,0.000000
482149743.595658,-0.124100,-0.011139,-1.049393,0.080265,0.014033,0.003021,0.996773,0.004136,-0.080171,-0.003020,0.999897,0.014033,0.080221,-0.013745,0.996682,0.080171,-0.014033,-0.996682,-0.112062,0.006006,-0.062827,-0.002035,0.008309,0.002588,345.786316,350.249115,-1.000000,0.000000,0.000000
482149743.606108,0.026611,-0.008194,-1.065948,0.080265,0.014033,0.003021,0.996773,0.004136,-0.080171,-0.003020,0.999897,0.014033,0.080221,-0.013745,0.996682,0.080171,-0.014033,-0.996682,-0.112062,0.006006,-0.062827,-0.002035,0.008309,0.002588,345.792877,350.255676,-1.000000,0.000000,0.000000
482149743.615493,0.157349,-0.011505,-1.034622,0.080309,0.014061,0.003039,0.996769,0.004157,-0.080214,-0.003039,0.999897,0.014061,0.080265,-0.013771,0.996678,0.080214,-0.014061,-0.996678,-0.176375,0.008064,-0.094661,0.001671,0.001386,0.000132,345.792877,350.255676,-1.000000,0.000000,0.000000
482149743.626107,0.197159,-0.006622,-1.074493,0.080277,0.014085,0.003056,0.996771,0.004176,-0.080183,-0.003056,0.999896,0.014084,0.080234,-0.013794,0.996681,0.080183,-0.014084,-0.996681,-0.204283,0.002945,-0.052712,-0.000801,-0.002085,0.001346,345.792877,350.255676,-1.000000,0.000000,0.000000
482149743.641235,0.150421,-0.014313,-1.027817,0.080259,0.014064,0.003060,0.996773,0.004178,-0.080165,-0.003060,0.999896,0.014063,0.080215,-0.013772,0.996682,0.080165,-0.014063,-0.996682,0.077184,0.002558,-0.037940,-0.000821,-0.002033,0.007501,345.792877,350.255676,-1.000000,0.000000,0.000000
482149743.645457,0.150421,-0.014313,-1.027817,0.080259,0.014064,0.003060,0.996773,0.004178,-0.080165,-0.003060,0.999896,0.014063,0.080215,-0.013772,0.996682,0.080165,-0.014063,-0.996682,0.077184,0.002558,-0.037940,-0.000821,-0.002033,0.007501,345.799072,350.261871,-1.000000,0.000000,0.000000
482149743.656173,0.135925,-0.011475,-1.090637,0.080272,0.014043,0.003057,0.996772,0.004173,-0.080178,-0.003057,0.999897,0.014043,0.080228,-0.013753,0.996682,0.080178,-0.014043,-0.996682,0.077171,0.002538,-0.037941,-0.002017,0.002483,-0.003576,345.799072,350.261871,-1.000000,0.000000,0.000000
482149743.669037,-0.245987,-0.008896,-1.065964,0.080271,0.014088,0.003050,0.996772,0.004170,-0.080177,-0.003050,0.999896,0.014087,0.080227,-0.013797,0.996681,0.080177,-0.014087,-0.996681,0.070244,-0.000226,-0.031136,0.002908,0.001385,-0.001094,345.799072,350.261871,-1.000000,0.000000,0.000000
482149743.675865,-0.245987,-0.008896,-1.065964,0.080271,0.014088,0.003050,0.996772,0.004170,-0.080177,-0.003050,0.999896,0.014087,0.080227,-0.013797,0.996681,0.080177,-0.014087,-0.996681,0.070244,-0.000226,-0.031136,0.002908,0.001385,-0.001094,345.799072,350.261871,-1.000000,0.000000,0.000000
482149743.686086,-0.125946,-0.013168,-1.060196,0.080240,0.014162,0.003021,0.996774,0.004147,-0.080146,-0.003021,0.999895,0.014161,0.080196,-0.013874,0.996683,0.080146,-0.014161,-0.996683,0.055779,0.002687,-0.093955,0.007861,-0.000942,-0.007230,345.799072,350.261871,-1.000000,0.000000,0.000000
482149743.695975,-0.107208,-0.008575,-1.063965,0.080211,0.014141,0.003037,0.996777,0.004161,-0.080117,-0.003037,0.999895,0.014141,0.080167,-0.013852,0.996685,0.080117,-0.014141,-0.996685,-0.326103,0.005245,-0.069279,0.005363,0.003743,0.002615,345.799072,350.261871,-1.000000,0.000000,0.000000
482149743.706840,0.002960,-0.009796,-1.074951,0.080211,0.014141,0.003037,0.996777,0.004161,-0.080117,-0.003037,0.999895,0.014141,0.080167,-0.013852,0.996685,0.080117,-0.014141,-0.996685,-0.326103,0.005245,-0.069279,0.005363,0.003743,0.002615,345.804840,350.267639,-1.000000,0.000000,0.000000
482149743.715511,0.144730,-0.012497,-1.070007,0.080213,0.014154,0.003068,0.996777,0.004192,-0.080119,-0.003067,0.999895,0.014154,0.080169,-0.013862,0.996685,0.080119,-0.014154,-0.996685,-0.206065,0.000985,-0.063511,0.004121,0.000291,0.005065,345.804840,350.267639,-1.000000,0.000000,0.000000
482149743.726762,0.163483,-0.008911,-1.070831,0.080228,0.014241,0.003147,0.996775,0.004279,-0.080134,-0.003147,0.999894,0.014240,0.080186,-0.013942,0.996682,0.080134,-0.014240,-0.996682,-0.187342,0.005665,-0.067282,-0.000804,0.002544,0.002584,345.804840,350.267639,-1.000000,0.000000,0.000000
482149743.735141,0.163483,-0.008911,-1.070831,0.080228,0.014241,0.003147,0.996775,0.004279,-0.080134,-0.003147,0.999894,0.014240,0.080186,-0.013942,0.996682,0.080134,-0.014240,-0.996682,-0.187342,0.005665,-0.067282,-0.000804,0.002544,0.002584,345.804840,350.267639,-1.000000,0.000000,0.000000
482149743.745980,0.134659,-0.012177,-1.049469,0.080275,0.014290,0.003181,0.996771,0.004317,-0.080181,-0.003181,0.999893,0.014289,0.080234,-0.013988,0.996678,0.080181,-0.014289,-0.996678,-0.077221,0.004493,-0.078273,0.004131,0.006043,0.002612,345.804840,350.267639,-1.000000,0.000000,0.000000
482149743.756065,-0.000183,-0.006699,-1.064163,0.080302,0.014243,0.003157,0.996769,0.004289,-0.080208,-0.003157,0.999894,0.014242,0.080260,-0.013943,0.996676,0.080208,-0.014242,-0.996676,0.083275,0.005331,-0.074155,0.004146,0.003692,-0.002315,345.809357,350.272156,-1.000000,0.000000,0.000000
482149743.765919,-0.113037,-0.016357,-1.054230,0.080302,0.014243,0.003157,0.996769,0.004289,-0.080208,-0.003157,0.999894,0.014242,0.080260,-0.013943,0.996676,0.080208,-0.014242,-0.996676,0.083275,0.005331,-0.074155,0.004146,0.003692,-0.002315,345.809357,350.272156,-1.000000,0.000000,0.000000
482149743.775745,-0.247101,-0.002945,-1.068909,0.080326,0.014235,0.003165,0.996767,0.004297,-0.080232,-0.003164,0.999894,0.014235,0.080285,-0.013935,0.996675,0.080232,-0.014235,-0.996675,0.054427,0.002058,-0.052794,-0.002037,0.001381,0.002577,345.809357,350.272156,-1.000000,0.000000,0.000000
482149743.785277,-0.141129,0.000015,-1.061264,0.080370,0.014281,0.003176,0.996763,0.004312,-0.080276,-0.003175,0.999893,0.014280,0.080329,-0.013979,0.996670,0.080276,-0.014280,-0.996670,-0.193313,-0.002077,-0.057559,-0.002040,0.006010,0.003815,345.809357,350.272156,-1.000000,0.000000,0.000000
482149743.800800,-0.091263,-0.007004,-1.079529,0.080370,0.014281,0.003176,0.996763,0.004312,-0.080276,-0.003175,0.999893,0.014280,0.080329,-0.013979,0.996670,0.080276,-0.014280,-0.996670,-0.193313,-0.002077,-0.057559,-0.002040,0.006010,0.003815,345.809357,350.272156,-1.000000,0.000000,0.000000
482149743.805150,-0.045822,-0.006760,-1.058640,0.080361,0.014268,0.003190,0.996764,0.004325,-0.080266,-0.003190,0.999893,0.014268,0.080319,-0.013965,0.996671,0.080266,-0.014268,-0.996671,-0.327367,0.011323,-0.072237,0.000437,-0.002087,0.000120,345.809357,350.272156,-1.000000,0.000000,0.000000
482149743.816185,0.146820,-0.015564,-1.074875,0.080376,0.014300,0.003185,0.996763,0.004323,-0.080282,-0.003184,0.999893,0.014299,0.080335,-0.013997,0.996670,0.080282,-0.014299,-0.996670,-0.221410,0.014314,-0.064594,-0.002066,0.004764,-0.004751,345.815643,350.278442,-1.000000,0.000000,0.000000
482149743.827007,0.211105,-0.005951,-1.084198,0.080376,0.014300,0.003185,0.996763,0.004323,-0.080282,-0.003184,0.999893,0.014299,0.080335,-0.013997,0.996670,0.080282,-0.014299,-0.996670,-0.221410,0.014314,-0.064594,-0.002066,0.004764,-0.004751,345.815643,350.278442,-1.000000,0.000000,0.000000
482149743.835995,0.135513,-0.009155,-1.041626,0.080367,0.014289,0.003157,0.996764,0.004294,-0.080273,-0.003157,0.999893,0.014289,0.080325,-0.013989,0.996671,0.080273,-0.014289,-0.996671,-0.171535,0.007285,-0.082858,-0.002080,-0.002133,-0.001069,345.815643,350.278442,-1.000000,0.000000,0.000000
482149743.847353,0.135513,-0.009155,-1.041626,0.080427,0.014343,0.003211,0.996759,0.004353,-0.080332,-0.003210,0.999892,0.014342,0.080386,-0.014038,0.996665,0.080332,-0.014342,-0.996665,0.066488,-0.001222,-0.078210,0.004076,0.002561,0.002660,345.815643,350.278442,-1.000000,0.000000,0.000000
482149743.857524,-0.127228,-0.009964,-1.032745,0.080424,0.014380,0.003258,0.996759,0.004402,-0.080329,-0.003257,0.999891,0.014380,0.080383,-0.014072,0.996665,0.080329,-0.014380,-0.996665,0.130777,0.008429,-0.087533,0.007759,0.000320,0.007597,345.815765,350.278564,-1.000000,0.000000,0.000000
482149743.865873,-0.127228,-0.009964,-1.032745,0.080424,0.014380,0.003258,0.996759,0.004402,-0.080329,-0.003257,0.999891,0.014380,0.080383,-0.014072,0.996665,0.080329,-0.014380,-0.996665,0.130777,0.008429,-0.087533,0.007759,0.000320,0.007597,345.815765,350.278564,-1.000000,0.000000,0.000000
482149743.875894,-0.227112,-0.007355,-1.076614,0.080472,0.014434,0.003383,0.996754,0.004532,-0.080377,-0.003383,0.999890,0.014433,0.080433,-0.014114,0.996660,0.080377,-0.014433,-0.996660,-0.051614,0.006026,-0.091810,0.002827,0.006058,0.007583,345.815765,350.278564,-1.000000,0.000000,0.000000
482149743.886019,-0.148941,-0.001877,-1.072113,0.080502,0.014477,0.003502,0.996751,0.004654,-0.080406,-0.003501,0.999889,0.014476,0.080465,-0.014148,0.996657,0.080406,-0.014476,-0.996657,-0.051644,0.006069,-0.091813,-0.000902,0.002641,0.016178,345.815765,350.278564,-1.000000,0.000000,0.000000
482149743.895997,-0.074509,-0.004349,-1.074493,0.080502,0.014477,0.003502,0.996751,0.004654,-0.080406,-0.003501,0.999889,0.014476,0.080465,-0.014148,0.996657,0.080406,-0.014476,-0.996657,-0.051644,0.006069,-0.091813,-0.000902,0.002641,0.016178,345.815765,350.278564,-1.000000,0.000000,0.000000
482149743.905949,-0.051712,-0.005737,-1.071411,0.080477,0.014455,0.003513,0.996753,0.004663,-0.080382,-0.003512,0.999889,0.014454,0.080441,-0.014125,0.996659,0.080382,-0.014454,-0.996659,-0.307494,0.007100,-0.079955,0.000376,0.003690,0.002645,345.815765,350.278564,-1.000000,0.000000,0.000000
482149743.916046,0.224930,-0.011963,-1.055695,0.080434,0.014490,0.003530,0.996757,0.004682,-0.080339,-0.003529,0.999889,0.014490,0.080398,-0.014159,0.996662,0.080339,-0.014490,-0.996662,-0.229280,0.012613,-0.075451,0.006536,-0.005494,0.003889,345.817871,350.280670,-1.000000,0.000000,0.000000
482149743.926819,0.123734,-0.004181,-1.072098,0.080434,0.014490,0.003530,0.996757,0.004682,-0.080339,-0.003529,0.999889,0.014490,0.080398,-0.014159,0.996662,0.080339,-0.014490,-0.996662,-0.229280,0.012613,-0.075451,0.006536,-0.005494,0.003889,345.817871,350.280670,-1.000000,0.000000,0.000000
482149743.935914,0.136749,-0.016174,-1.050446,0.080500,0.014506,0.003556,0.996751,0.004711,-0.080405,-0.003556,0.999888,0.014505,0.080464,-0.014172,0.996657,0.080405,-0.014505,-0.996657,-0.132117,0.008768,-0.074754,0.001625,0.003657,-0.002274,345.817871,350.280670,-1.000000,0.000000,0.000000
482149743.945543,0.136749,-0.016174,-1.050446,0.080525,0.014553,0.003572,0.996749,0.004731,-0.080429,-0.003572,0.999888,0.014552,0.080489,-0.014218,0.996654,0.080429,-0.014552,-0.996654,0.144501,0.002589,-0.059040,-0.002095,0.002528,0.003862,345.817871,350.280670,-1.000000,0.000000,0.000000
482149743.958189,0.055344,-0.000015,-1.090225,0.080525,0.014553,0.003572,0.996749,0.004731,-0.080429,-0.003572,0.999888,0.014552,0.080489,-0.014218,0.996654,0.080429,-0.014552,-0.996654,0.144501,0.002589,-0.059040,-0.002095,0.002528,0.003862,345.817871,350.280670,-1.000000,0.000000,0.000000
482149743.965916,-0.059830,-0.006348,-1.041092,0.080563,0.014596,0.003572,0.996746,0.004735,-0.080467,-0.003572,0.999887,0.014596,0.080527,-0.014261,0.996650,0.080467,-0.014596,-0.996650,0.043267,0.010415,-0.075447,-0.003320,0.004808,0.001398,345.815308,350.278107,-1.000000,0.000000,0.000000
482149743.976215,-0.184479,-0.003326,-1.091949,0.080582,0.014590,0.003526,0.996745,0.004689,-0.080486,-0.003526,0.999887,0.014590,0.080545,-0.014259,0.996649,0.080486,-0.014590,-0.996649,0.056263,-0.001584,-0.053797,0.004099,0.001344,-0.004729,345.815308,350.278107,-1.000000,0.000000,0.000000
482149743.985882,-0.118362,-0.007172,-1.033676,0.080582,0.014590,0.003526,0.996745,0.004689,-0.080486,-0.003526,0.999887,0.014590,0.080545,-0.014259,0.996649,0.080486,-0.014590,-0.996649,0.056263,-0.001584,-0.053797,0.004099,0.001344,-0.004729,345.815308,350.278107,-1.000000,0.000000,0.000000
482149743.995975,-0.091141,-0.018784,-1.056015,0.080518,0.014633,0.003671,0.996749,0.004836,-0.080422,-0.003670,0.999886,0.014633,0.080484,-0.014290,0.996653,0.080422,-0.014633,-0.996653,-0.140252,0.008285,-0.044438,-0.004580,-0.006686,0.008761,345.815308,350.278107,-1.000000,0.000000,0.000000
482149744.005952,0.069321,-0.010056,-1.071518,0.080515,0.014732,0.003653,0.996749,0.004826,-0.080419,-0.003652,0.999885,0.014731,0.080481,-0.014390,0.996652,0.080419,-0.014731,-0.996652,-0.264898,0.011405,-0.095297,0.011487,0.001428,-0.001002,345.815308,350.278107,-1.000000,0.000000,0.000000
482149744.017347,0.209137,-0.014648,-1.057770,0.080515,0.014732,0.003653,0.996749,0.004826,-0.080419,-0.003652,0.999885,0.014731,0.080481,-0.014390,0.996652,0.080419,-0.014731,-0.996652,-0.264898,0.011405,-0.095297,0.011487,0.001428,-0.001002,345.814667,350.277466,-1.000000,0.000000,0.000000
482149744.026036,0.079041,-0.000381,-1.075348,0.080509,0.014849,0.003599,0.996750,0.004782,-0.080413,-0.003599,0.999883,0.014849,0.080475,-0.014511,0.996651,0.080413,-0.014849,-0.996651,-0.171554,-0.003935,-0.059364,0.011503,0.000231,-0.005928,345.814667,350.277466,-1.000000,0.000000,0.000000
482149744.036216,0.079041,-0.000381,-1.075348,0.080538,0.014805,0.003604,0.996748,0.004784,-0.080443,-0.003604,0.999884,0.014805,0.080504,-0.014467,0.996649,0.080443,-0.014805,-0.996649,-0.011122,0.004749,-0.074869,-0.005782,0.004780,0.000156,345.814667,350.277466,-1.000000,0.000000,0.000000
482149744.047612,0.080063,-0.002380,-1.076324,0.080519,0.014777,0.003688,0.996749,0.004864,-0.080423,-0.003687,0.999884,0.014777,0.080486,-0.014432,0.996651,0.080423,-0.014777,-0.996651,0.128714,0.000128,-0.061119,-0.003317,-0.000976,0.000158,345.814667,350.277466,-1.000000,0.000000,0.000000
482149744.058242,0.080063,-0.002380,-1.076324,0.080519,0.014777,0.003688,0.996749,0.004864,-0.080423,-0.003687,0.999884,0.014777,0.080486,-0.014432,0.996651,0.080423,-0.014777,-0.996651,0.128714,0.000128,-0.061119,-0.003317,-0.000976,0.000158,345.814667,350.277466,-1.000000,0.000000,0.000000
482149744.065723,-0.043823,-0.005859,-1.065460,0.080561,0.014846,0.003666,0.996746,0.004849,-0.080465,-0.003666,0.999883,0.014845,0.080528,-0.014502,0.996647,0.080465,-0.014845,-0.996647,-0.001424,0.014464,-0.078701,0.006559,0.006001,-0.002248,345.814667,350.277466,-1.000000,0.000000,0.000000
482149744.076005,-0.147781,-0.010803,-1.067200,0.080587,0.014849,0.003694,0.996743,0.004877,-0.080491,-0.003693,0.999883,0.014849,0.080554,-0.014503,0.996645,0.080491,-0.014849,-0.996645,-0.000428,0.012468,-0.079680,0.000384,0.003669,0.000182,345.814667,350.277466,-1.000000,0.000000,0.000000
482149744.086305,-0.093262,-0.004074,-1.087372,0.080587,0.014849,0.003694,0.996743,0.004877,-0.080491,-0.003693,0.999883,0.014849,0.080554,-0.014503,0.996645,0.080491,-0.014849,-0.996645,-0.000428,0.012468,-0.079680,0.000384,0.003669,0.000182,345.814667,350.277466,-1.000000,0.000000,0.000000
482149744.096036,-0.091415,-0.011703,-1.041321,0.080600,0.014783,0.003718,0.996742,0.004896,-0.080504,-0.003718,0.999884,0.014782,0.080567,-0.014435,0.996645,0.080504,-0.014782,-0.996645,-0.124327,0.008923,-0.068815,-0.007017,0.000152,0.000143,345.814667,350.277466,-1.000000,0.000000,0.000000
482149744.106192,0.043549,-0.007660,-1.079544,0.080609,0.014807,0.003708,0.996742,0.004888,-0.080513,-0.003708,0.999883,0.014807,0.080576,-0.014460,0.996644,0.080513,-0.014807,-0.996644,-0.173775,0.010733,-0.090728,-0.007017,0.000152,0.000143,345.814667,350.277466,-1.000000,0.000000,0.000000
482149744.116124,0.187088,-0.012054,-1.031479,0.080609,0.014807,0.003708,0.996742,0.004888,-0.080513,-0.003708,0.999883,0.014807,0.080576,-0.014460,0.996644,0.080513,-0.014807,-0.996644,-0.173775,0.010733,-0.090728,-0.007017,0.000152,0.000143,345.814667,350.277466,-1.000000,0.000000,0.000000
482149744.136756,0.155441,-0.017380,-1.026810,0.080639,0.014902,0.003616,0.996740,0.004804,-0.080543,-0.003615,0.999882,0.014901,0.080605,-0.014561,0.996640,0.080543,-0.014901,-0.996640,-0.036994,0.007241,-0.082904,0.011487,0.001427,-0.001002,345.817780,350.280579,-1.000000,0.000000,0.000000
482149744.145739,0.155441,-0.017380,-1.026810,0.080639,0.014902,0.003616,0.996740,0.004804,-0.080543,-0.003615,0.999882,0.014901,0.080605,-0.014561,0.996640,0.080543,-0.014901,-0.996640,-0.036994,0.007241,-0.082904,0.011487,0.001427,-0.001002,345.817780,350.280579,-1.000000,0.000000,0.000000
482149744.155759,0.141953,-0.018478,-1.077850,0.080635,0.014814,0.003600,0.996740,0.004782,-0.080539,-0.003600,0.999884,0.014813,0.080600,-0.014475,0.996641,0.080539,-0.014813,-0.996641,0.106549,0.002759,-0.034837,-0.009468,-0.001062,-0.004795,345.817780,350.280579,-1.000000,0.000000,0.000000
482149744.165147,-0.017776,-0.015335,-1.069229,0.080645,0.014859,0.003624,0.996739,0.004809,-0.080548,-0.003624,0.999883,0.014859,0.080610,-0.014518,0.996640,0.080548,-0.014859,-0.996640,0.074893,-0.002521,-0.030170,-0.007027,-0.006756,0.002594,345.817780,350.280579,-1.000000,0.000000,0.000000
482149744.175850,-0.249832,-0.012833,-1.069901,0.080645,0.014859,0.003624,0.996739,0.004809,-0.080548,-0.003624,0.999883,0.014859,0.080610,-0.014518,0.996640,0.080548,-0.014859,-0.996640,0.074893,-0.002521,-0.030170,-0.007027,-0.006756,0.002594,345.821716,350.284515,-1.000000,0.000000,0.000000
