Timestamp,Accel_X,Accel_Y,Accel_Z,Roll,Pitch,Yaw,RM11,RM12,RM13,RM21,RM22,RM23,RM31,RM32,RM33,GravAcc_X,GravAcc_Y,GravAcc_Z,UserAcc_X,UserAcc_Y,UserAcc_Z,RotRate_X,RotRate_Y,RotRate_Z,MagHeading,TrueHeading,HeadingAccuracy,Course,Speed
482149305.498005,0.011810,-0.010895,-1.066055,0.009386,0.009107,0.008292,0.999921,0.008377,-0.009386,-0.008292,0.999924,0.009107,0.009461,-0.009029,0.999914,0.009386,-0.009107,-0.999914,0.002440,-0.001803,-0.068109,-0.000366,-0.010137,-0.004377,346.308929,350.771729,-1.000000,0.000000,0.000000
482149305.545828,-0.076553,-0.004242,-1.065689,0.009386,0.009107,0.008292,0.999921,0.008377,-0.009386,-0.008292,0.999924,0.009107,0.009461,-0.009029,0.999914,0.009386,-0.009107,-0.999914,0.002440,-0.001803,-0.068109,-0.000366,-0.010137,-0.004377,346.308929,350.771729,-1.000000,0.000000,0.000000
482149305.560770,0.008713,-0.008759,-1.052353,0.009386,0.009107,0.008292,0.999921,0.008377,-0.009386,-0.008292,0.999924,0.009107,0.009461,-0.009029,0.999914,0.009386,-0.009107,-0.999914,0.002440,-0.001803,-0.068109,-0.000366,-0.010137,-0.004377,346.308929,350.771729,-1.000000,0.000000,0.000000
482149305.567019,0.002777,-0.006729,-1.062195,0.009386,0.009107,0.008292,0.999921,0.008377,-0.009386,-0.008292,0.999924,0.009107,0.009461,-0.009029,0.999914,0.009386,-0.009107,-0.999914,0.002440,-0.001803,-0.068109,-0.000366,-0.010137,-0.004377,346.308929,350.771729,-1.000000,0.000000,0.000000
482149305.577464,-0.071396,-0.014236,-1.062744,0.009386,0.009107,0.008292,0.999921,0.008377,-0.009386,-0.008292,0.999924,0.009107,0.009461,-0.009029,0.999914,0.009386,-0.009107,-0.999914,0.002440,-0.001803,-0.068109,-0.000366,-0.010137,-0.004377,346.308929,350.771729,-1.000000,0.000000,0.000000
482149305.588118,-0.061371,-0.016464,-1.067566,0.009386,0.009107,0.008292,0.999921,0.008377,-0.009386,-0.008292,0.999924,0.009107,0.009461,-0.009029,0.999914,0.009386,-0.009107,-0.999914,0.002440,-0.001803,-0.068109,-0.000366,-0.010137,-0.004377,346.308929,350.771729,-1.000000,0.000000,0.000000
482149305.596617,0.025787,-0.014145,-1.065948,0.009386,0.009107,0.008292,0.999921,0.008377,-0.009386,-0.008292,0.999924,0.009107,0.009461,-0.009029,0.999914,0.009386,-0.009107,-0.999914,0.002440,-0.001803,-0.068109,-0.000366,-0.010137,-0.004377,346.308929,350.771729,-1.000000,0.000000,0.000000
482149305.611759,0.102921,-0.009613,-1.056564,0.009386,0.009107,0.008292,0.999921,0.008377,-0.009386,-0.008292,0.999924,0.009107,0.009461,-0.009029,0.999914,0.009386,-0.009107,-0.999914,0.002440,-0.001803,-0.068109,-0.000366,-0.010137,-0.004377,346.308929,350.771729,-1.000000,0.000000,0.000000
482149305.616947,0.102921,-0.009613,-1.056564,0.009386,0.009107,0.008292,0.999921,0.008377,-0.009386,-0.008292,0.999924,0.009107,0.009461,-0.009029,0.999914,0.009386,-0.009107,-0.999914,0.002440,-0.001803,-0.068109,-0.000366,-0.010137,-0.004377,346.308929,350.771729,-1.000000,0.000000,0.000000
482149305.628693,0.044357,-0.010391,-1.043289,0.009386,0.009107,0.008292,0.999921,0.008377,-0.009386,-0.008292,0.999924,0.009107,0.009461,-0.009029,0.999914,0.009386,-0.009107,-0.999914,0.002440,-0.001803,-0.068109,-0.000366,-0.010137,-0.004377,346.308929,350.771729,-1.000000,0.000000,0.000000
482149305.637469,0.044357,-0.010391,-1.043289,0.009386,0.009107,0.008292,0.999921,0.008377,-0.009386,-0.008292,0.999924,0.009107,0.009461,-0.009029,0.999914,0.009386,-0.009107,-0.999914,0.002440,-0.001803,-0.068109,-0.000366,-0.010137,-0.004377,346.308929,350.771729,-1.000000,0.000000,0.000000
482149305.647415,0.080978,-0.002304,-1.063583,0.009386,0.009107,0.008292,0.999921,0.008377,-0.009386,-0.008292,0.999924,0.009107,0.009461,-0.009029,0.999914,0.009386,-0.009107,-0.999914,0.002440,-0.001803,-0.068109,-0.000366,-0.010137,-0.004377,346.308929,350.771729,-1.000000,0.000000,0.000000
482149305.659475,0.118805,-0.008987,-1.063309,0.009386,0.009107,0.008292,0.999921,0.008377,-0.009386,-0.008292,0.999924,0.009107,0.009461,-0.009029,0.999914,0.009386,-0.009107,-0.999914,0.002440,-0.001803,-0.068109,-0.000366,-0.010137,-0.004377,346.308929,350.771729,-1.000000,0.000000,0.000000
482149305.671497,0.080307,-0.011337,-1.080261,0.009386,0.009107,0.008292,0.999921,0.008377,-0.009386,-0.008292,0.999924,0.009107,0.009461,-0.009029,0.999914,0.009386,-0.009107,-0.999914,0.002440,-0.001803,-0.068109,-0.000366,-0.010137,-0.004377,346.308929,350.771729,-1.000000,0.000000,0.000000
482149305.687372,-0.137955,-0.010895,-1.053406,0.009386,0.009107,0.008292,0.999921,0.008377,-0.009386,-0.008292,0.999924,0.009107,0.009461,-0.009029,0.999914,0.009386,-0.009107,-0.999914,0.002440,-0.001803,-0.068109,-0.000366,-0.010137,-0.004377,346.308929,350.771729,-1.000000,0.000000,0.000000
482149305.697320,-0.044800,-0.015518,-1.032150,0.009386,0.009107,0.008292,0.999921,0.008377,-0.009386,-0.008292,0.999924,0.009107,0.009461,-0.009029,0.999914,0.009386,-0.009107,-0.999914,0.002440,-0.001803,-0.068109,-0.000366,-0.010137,-0.004377,346.308929,350.771729,-1.000000,0.000000,0.000000
482149305.710200,-0.058548,-0.005722,-1.086151,0.009386,0.009107,0.008292,0.999921,0.008377,-0.009386,-0.008292,0.999924,0.009107,0.009461,-0.009029,0.999914,0.009386,-0.009107,-0.999914,0.002440,-0.001803,-0.068109,-0.000366,-0.010137,-0.004377,346.308929,350.771729,-1.000000,0.000000,0.000000
482149305.717239,-0.083298,-0.019806,-1.041275,0.009386,0.009107,0.008292,0.999921,0.008377,-0.009386,-0.008292,0.999924,0.009107,0.009461,-0.009029,0.999914,0.009386,-0.009107,-0.999914,0.002440,-0.001803,-0.068109,-0.000366,-0.010137,-0.004377,346.308929,350.771729,-1.000000,0.000000,0.000000
482149305.730639,-0.073257,-0.013351,-1.083328,0.009386,0.009107,0.008292,0.999921,0.008377,-0.009386,-0.008292,0.999924,0.009107,0.009461,-0.009029,0.999914,0.009386,-0.009107,-0.999914,0.002440,-0.001803,-0.068109,-0.000366,-0.010137,-0.004377,346.308929,350.771729,-1.000000,0.000000,0.000000
482149305.737258,-0.073257,-0.013351,-1.083328,0.009386,0.009107,0.008292,0.999921,0.008377,-0.009386,-0.008292,0.999924,0.009107,0.009461,-0.009029,0.999914,0.009386,-0.009107,-0.999914,0.002440,-0.001803,-0.068109,-0.000366,-0.010137,-0.004377,346.308929,350.771729,-1.000000,0.000000,0.000000
482149305.747465,0.016785,-0.011978,-1.064056,0.009386,0.009107,0.008292,0.999921,0.008377,-0.009386,-0.008292,0.999924,0.009107,0.009461,-0.009029,0.999914,0.009386,-0.009107,-0.999914,0.002440,-0.001803,-0.068109,-0.000366,-0.010137,-0.004377,346.308929,350.771729,-1.000000,0.000000,0.000000
482149305.762173,0.009689,-0.010712,-1.045502,0.009386,0.009107,0.008292,0.999921,0.008377,-0.009386,-0.008292,0.999924,0.009107,0.009461,-0.009029,0.999914,0.009386,-0.009107,-0.999914,0.002440,-0.001803,-0.068109,-0.000366,-0.010137,-0.004377,346.308929,350.771729,-1.000000,0.000000,0.000000
482149305.767045,0.009689,-0.010712,-1.045502,0.009386,0.009107,0.008292,0.999921,0.008377,-0.009386,-0.008292,0.999924,0.009107,0.009461,-0.009029,0.999914,0.009386,-0.009107,-0.999914,0.002440,-0.001803,-0.068109,-0.000366,-0.010137,-0.004377,346.308929,350.771729,-1.000000,0.000000,0.000000
482149305.777723,0.028732,-0.010330,-1.078674,0.009386,0.009107,0.008292,0.999921,0.008377,-0.009386,-0.008292,0.999924,0.009107,0.009461,-0.009029,0.999914,0.009386,-0.009107,-0.999914,0.002440,-0.001803,-0.068109,-0.000366,-0.010137,-0.004377,346.308929,350.771729,-1.000000,0.000000,0.000000
482149305.787626,0.090820,-0.006287,-1.039993,0.009386,0.009107,0.008292,0.999921,0.008377,-0.009386,-0.008292,0.999924,0.009107,0.009461,-0.009029,0.999914,0.009386,-0.009107,-0.999914,0.002440,-0.001803,-0.068109,-0.000366,-0.010137,-0.004377,346.308929,350.771729,-1.000000,0.000000,0.000000
482149305.798211,0.074142,-0.004227,-1.071472,0.009386,0.009107,0.008292,0.999921,0.008377,-0.009386,-0.008292,0.999924,0.009107,0.009461,-0.009029,0.999914,0.009386,-0.009107,-0.999914,0.002440,-0.001803,-0.068109,-0.000366,-0.010137,-0.004377,346.308929,350.771729,-1.000000,0.000000,0.000000
482149305.812666,0.026535,-0.006195,-1.061035,0.009386,0.009107,0.008292,0.999921,0.008377,-0.009386,-0.008292,0.999924,0.009107,0.009461,-0.009029,0.999914,0.009386,-0.009107,-0.999914,0.002440,-0.001803,-0.068109,-0.000366,-0.010137,-0.004377,346.308929,350.771729,-1.000000,0.000000,0.000000
482149305.816668,0.026535,-0.006195,-1.061035,0.009386,0.009107,0.008292,0.999921,0.008377,-0.009386,-0.008292,0.999924,0.009107,0.009461,-0.009029,0.999914,0.009386,-0.009107,-0.999914,0.002440,-0.001803,-0.068109,-0.000366,-0.010137,-0.004377,346.308929,350.771729,-1.000000,0.000000,0.000000
482149305.830471,-0.115234,-0.009308,-1.047379,0.009386,0.009107,0.008292,0.999921,0.008377,-0.009386,-0.008292,0.999924,0.009107,0.009461,-0.009029,0.999914,0.009386,-0.009107,-0.999914,0.002440,-0.001803,-0.068109,-0.000366,-0.010137,-0.004377,346.308929,350.771729,-1.000000,0.000000,0.000000
482149305.837304,-0.115234,-0.009308,-1.047379,0.009386,0.009107,0.008292,0.999921,0.008377,-0.009386,-0.008292,0.999924,0.009107,0.009461,-0.009029,0.999914,0.009386,-0.009107,-0.999914,0.002440,-0.001803,-0.068109,-0.000366,-0.010137,-0.004377,346.308929,350.771729,-1.000000,0.000000,0.000000
482149305.847567,-0.010971,-0.009506,-1.070129,0.009386,0.009107,0.008292,0.999921,0.008377,-0.009386,-0.008292,0.999924,0.009107,0.009461,-0.009029,0.999914,0.009386,-0.009107,-0.999914,0.002440,-0.001803,-0.068109,-0.000366,-0.010137,-0.004377,346.308929,350.771729,-1.000000,0.000000,0.000000
482149305.864307,-0.073349,-0.016174,-1.058838,0.009386,0.009107,0.008292,0.999921,0.008377,-0.009386,-0.008292,0.999924,0.009107,0.009461,-0.009029,0.999914,0.009386,-0.009107,-0.999914,0.002440,-0.001803,-0.068109,-0.000366,-0.010137,-0.004377,346.308929,350.771729,-1.000000,0.000000,0.000000
482149305.866709,-0.073349,-0.016174,-1.058838,0.009386,0.009107,0.008292,0.999921,0.008377,-0.009386,-0.008292,0.999924,0.009107,0.009461,-0.009029,0.999914,0.009386,-0.009107,-0.999914,0.002440,-0.001803,-0.068109,-0.000366,-0.010137,-0.004377,346.308929,350.771729,-1.000000,0.000000,0.000000
482149305.878563,-0.047653,-0.011719,-1.064529,0.009386,0.009107,0.008292,0.999921,0.008377,-0.009386,-0.008292,0.999924,0.009107,0.009461,-0.009029,0.999914,0.009386,-0.009107,-0.999914,0.002440,-0.001803,-0.068109,-0.000366,-0.010137,-0.004377,346.308929,350.771729,-1.000000,0.000000,0.000000
482149305.887631,0.055191,-0.006653,-1.046127,0.009386,0.009107,0.008292,0.999921,0.008377,-0.009386,-0.008292,0.999924,0.009107,0.009461,-0.009029,0.999914,0.009386,-0.009107,-0.999914,0.002440,-0.001803,-0.068109,-0.000366,-0.010137,-0.004377,346.308929,350.771729,-1.000000,0.000000,0.000000
482149305.897927,0.140747,-0.015320,-1.058273,0.009386,0.009107,0.008292,0.999921,0.008377,-0.009386,-0.008292,0.999924,0.009107,0.009461,-0.009029,0.999914,0.009386,-0.009107,-0.999914,0.002440,-0.001803,-0.068109,-0.000366,-0.010137,-0.004377,346.308929,350.771729,-1.000000,0.000000,0.000000
482149305.911128,0.125732,-0.003296,-1.078949,0.009386,0.009107,0.008292,0.999921,0.008377,-0.009386,-0.008292,0.999924,0.009107,0.009461,-0.009029,0.999914,0.009386,-0.009107,-0.999914,0.002440,-0.001803,-0.068109,-0.000366,-0.010137,-0.004377,346.308929,350.771729,-1.000000,0.000000,0.000000
482149305.918260,0.125732,-0.003296,-1.078949,0.009386,0.009107,0.008292,0.999921,0.008377,-0.009386,-0.008292,0.999924,0.009107,0.009461,-0.009029,0.999914,0.009386,-0.009107,-0.999914,0.002440,-0.001803,-0.068109,-0.000366,-0.010137,-0.004377,346.308929,350.771729,-1.000000,0.000000,0.000000
482149305.930461,0.079193,-0.003433,-1.086136,0.009386,0.009107,0.008292,0.999921,0.008377,-0.009386,-0.008292,0.999924,0.009107,0.009461,-0.009029,0.999914,0.009386,-0.009107,-0.999914,0.002440,-0.001803,-0.068109,-0.000366,-0.010137,-0.004377,346.308929,350.771729,-1.000000,0.000000,0.000000
482149305.937308,0.104767,-0.007584,-1.043808,0.009386,0.009107,0.008292,0.999921,0.008377,-0.009386,-0.008292,0.999924,0.009107,0.009461,-0.009029,0.999914,0.009386,-0.009107,-0.999914,0.002440,-0.001803,-0.068109,-0.000366,-0.010137,-0.004377,346.308929,350.771729,-1.000000,0.000000,0.000000
482149305.947620,0.039520,-0.008484,-1.068802,0.009386,0.009107,0.008292,0.999921,0.008377,-0.009386,-0.008292,0.999924,0.009107,0.009461,-0.009029,0.999914,0.009386,-0.009107,-0.999914,0.002440,-0.001803,-0.068109,-0.000366,-0.010137,-0.004377,346.308929,350.771729,-1.000000,0.000000,0.000000
482149305.962598,-0.024872,-0.013077,-1.052597,0.009386,0.009107,0.008292,0.999921,0.008377,-0.009386,-0.008292,0.999924,0.009107,0.009461,-0.009029,0.999914,0.009386,-0.009107,-0.999914,0.002440,-0.001803,-0.068109,-0.000366,-0.010137,-0.004377,346.308929,350.771729,-1.000000,0.000000,0.000000
482149305.966826,-0.088531,-0.002975,-1.061859,0.009386,0.009107,0.008292,0.999921,0.008377,-0.009386,-0.008292,0.999924,0.009107,0.009461,-0.009029,0.999914,0.009386,-0.009107,-0.999914,0.002440,-0.001803,-0.068109,-0.000366,-0.010137,-0.004377,346.308929,350.771729,-1.000000,0.000000,0.000000
482149305.977416,-0.088531,-0.002975,-1.061859,0.009386,0.009107,0.008292,0.999921,0.008377,-0.009386,-0.008292,0.999924,0.009107,0.009461,-0.009029,0.999914,0.009386,-0.009107,-0.999914,0.002440,-0.001803,-0.068109,-0.000366,-0.010137,-0.004377,346.308929,350.771729,-1.000000,0.000000,0.000000
482149305.987710,-0.033020,-0.005966,-1.051666,0.009386,0.009107,0.008292,0.999921,0.008377,-0.009386,-0.008292,0.999924,0.009107,0.009461,-0.009029,0.999914,0.009386,-0.009107,-0.999914,0.002440,-0.001803,-0.068109,-0.000366,-0.010137,-0.004377,346.308929,350.771729,-1.000000,0.000000,0.000000
482149305.997606,-0.045761,-0.008774,-1.062561,0.009386,0.009107,0.008292,0.999921,0.008377,-0.009386,-0.008292,0.999924,0.009107,0.009461,-0.009029,0.999914,0.009386,-0.009107,-0.999914,0.002440,-0.001803,-0.068109,-0.000366,-0.010137,-0.004377,346.308929,350.771729,-1.000000,0.000000,0.000000
482149306.010162,-0.040894,-0.001984,-1.070328,0.009386,0.009107,0.008292,0.999921,0.008377,-0.009386,-0.008292,0.999924,0.009107,0.009461,-0.009029,0.999914,0.009386,-0.009107,-0.999914,0.002440,-0.001803,-0.068109,-0.000366,-0.010137,-0.004377,346.308929,350.771729,-1.000000,0.000000,0.000000
482149306.017410,-0.040894,-0.001984,-1.070328,0.009386,0.009107,0.008292,0.999921,0.008377,-0.009386,-0.008292,0.999924,0.009107,0.009461,-0.009029,0.999914,0.009386,-0.009107,-0.999914,0.002440,-0.001803,-0.068109,-0.000366,-0.010137,-0.004377,346.308929,350.771729,-1.000000,0.000000,0.000000
482149306.029397,0.013657,-0.001129,-1.079758,0.009386,0.009107,0.008292,0.999921,0.008377,-0.009386,-0.008292,0.999924,0.009107,0.009461,-0.009029,0.999914,0.009386,-0.009107,-0.999914,0.002440,-0.001803,-0.068109,-0.000366,-0.010137,-0.004377,346.308929,350.771729,-1.000000,0.000000,0.000000
482149306.037269,0.063232,-0.010788,-1.048035,0.009386,0.009107,0.008292,0.999921,0.008377,-0.009386,-0.008292,0.999924,0.009107,0.009461,-0.009029,0.999914,0.009386,-0.009107,-0.999914,0.002440,-0.001803,-0.068109,-0.000366,-0.010137,-0.004377,346.308929,350.771729,-1.000000,0.000000,0.000000
482149306.047610,0.098877,-0.000763,-1.075195,0.009386,0.009107,0.008292,0.999921,0.008377,-0.009386,-0.008292,0.999924,0.009107,0.009461,-0.009029,0.999914,0.009386,-0.009107,-0.999914,0.002440,-0.001803,-0.068109,-0.000366,-0.010137,-0.004377,346.308929,350.771729,-1.000000,0.000000,0.000000
482149306.057785,0.021576,-0.009979,-1.047363,0.009386,0.009107,0.008292,0.999921,0.008377,-0.009386,-0.008292,0.999924,0.009107,0.009461,-0.009029,0.999914,0.009386,-0.009107,-0.999914,0.002440,-0.001803,-0.068109,-0.000366,-0.010137,-0.004377,346.308929,350.771729,-1.000000,0.000000,0.000000
482149306.067540,0.043365,-0.003601,-1.067780,0.009386,0.009107,0.008292,0.999921,0.008377,-0.009386,-0.008292,0.999924,0.009107,0.009461,-0.009029,0.999914,0.009386,-0.009107,-0.999914,0.002440,-0.001803,-0.068109,-0.000366,-0.010137,-0.004377,346.308929,350.771729,-1.000000,0.000000,0.000000
482149306.077904,0.118851,-0.008041,-1.070175,0.009386,0.009107,0.008292,0.999921,0.008377,-0.009386,-0.008292,0.999924,0.009107,0.009461,-0.009029,0.999914,0.009386,-0.009107,-0.999914,0.002440,-0.001803,-0.068109,-0.000366,-0.010137,-0.004377,346.308929,350.771729,-1.000000,0.000000,0.000000
482149306.087664,-0.018875,-0.008392,-1.077057,0.009386,0.009107,0.008292,0.999921,0.008377,-0.009386,-0.008292,0.999924,0.009107,0.009461,-0.009029,0.999914,0.009386,-0.009107,-0.999914,0.002440,-0.001803,-0.068109,-0.000366,-0.010137,-0.004377,346.308929,350.771729,-1.000000,0.000000,0.000000
482149306.097521,-0.088623,-0.005798,-1.039337,0.009386,0.009107,0.008292,0.999921,0.008377,-0.009386,-0.008292,0.999924,0.009107,0.009461,-0.009029,0.999914,0.009386,-0.009107,-0.999914,0.002440,-0.001803,-0.068109,-0.000366,-0.010137,-0.004377,346.308929,350.771729,-1.000000,0.000000,0.000000
482149306.107693,-0.172623,-0.006409,-1.073273,0.009386,0.009107,0.008292,0.999921,0.008377,-0.009386,-0.008292,0.999924,0.009107,0.009461,-0.009029,0.999914,0.009386,-0.009107,-0.999914,0.002440,-0.001803,-0.068109,-0.000366,-0.010137,-0.004377,346.308929,350.771729,-1.000000,0.000000,0.000000
482149306.117358,-0.172623,-0.006409,-1.073273,0.009386,0.009107,0.008292,0.999921,0.008377,-0.009386,-0.008292,0.999924,0.009107,0.009461,-0.009029,0.999914,0.009386,-0.009107,-0.999914,0.002440,-0.001803,-0.068109,-0.000366,-0.010137,-0.004377,346.308929,350.771729,-1.000000,0.000000,0.000000
482149306.127478,-0.008163,-0.004547,-1.064224,0.009386,0.009107,0.008292,0.999921,0.008377,-0.009386,-0.008292,0.999924,0.009107,0.009461,-0.009029,0.999914,0.009386,-0.009107,-0.999914,0.002440,-0.001803,-0.068109,-0.000366,-0.010137,-0.004377,346.308929,350.771729,-1.000000,0.000000,0.000000
482149306.137507,0.020477,-0.001129,-1.062057,0.009386,0.009107,0.008292,0.999921,0.008377,-0.009386,-0.008292,0.999924,0.009107,0.009461,-0.009029,0.999914,0.009386,-0.009107,-0.999914,0.002440,-0.001803,-0.068109,-0.000366,-0.010137,-0.004377,346.308929,350.771729,-1.000000,0.000000,0.000000
482149306.147799,-0.040695,-0.005081,-1.086990,0.009386,0.009107,0.008292,0.999921,0.008377,-0.009386,-0.008292,0.999924,0.009107,0.009461,-0.009029,0.999914,0.009386,-0.009107,-0.999914,0.002440,-0.001803,-0.068109,-0.000366,-0.010137,-0.004377,346.308929,350.771729,-1.000000,0.000000,0.000000
482149306.156848,-0.050568,-0.016571,-1.052780,0.009386,0.009107,0.008292,0.999921,0.008377,-0.009386,-0.008292,0.999924,0.009107,0.009461,-0.009029,0.999914,0.009386,-0.009107,-0.999914,0.002440,-0.001803,-0.068109,-0.000366,-0.010137,-0.004377,346.308929,350.771729,-1.000000,0.000000,0.000000
482149306.167599,0.090149,-0.014343,-1.055710,0.009386,0.009107,0.008292,0.999921,0.008377,-0.009386,-0.008292,0.999924,0.009107,0.009461,-0.009029,0.999914,0.009386,-0.009107,-0.999914,0.002440,-0.001803,-0.068109,-0.000366,-0.010137,-0.004377,346.308929,350.771729,-1.000000,0.000000,0.000000
482149306.177779,0.144684,-0.011475,-1.067062,0.009386,0.009107,0.008292,0.999921,0.008377,-0.009386,-0.008292,0.999924,0.009107,0.009461,-0.009029,0.999914,0.009386,-0.009107,-0.999914,0.002440,-0.001803,-0.068109,-0.000366,-0.010137,-0.004377,346.308929,350.771729,-1.000000,0.000000,0.000000
482149306.187584,0.132721,-0.011185,-1.058319,0.009386,0.009107,0.008292,0.999921,0.008377,-0.009386,-0.008292,0.999924,0.009107,0.009461,-0.009029,0.999914,0.009386,-0.009107,-0.999914,0.002440,-0.001803,-0.068109,-0.000366,-0.010137,-0.004377,346.308929,350.771729,-1.000000,0.000000,0.000000
482149306.197614,0.044632,-0.013565,-1.071701,0.009386,0.009107,0.008292,0.999921,0.008377,-0.009386,-0.008292,0.999924,0.009107,0.009461,-0.009029,0.999914,0.009386,-0.009107,-0.999914,0.002440,-0.001803,-0.068109,-0.000366,-0.010137,-0.004377,346.308929,350.771729,-1.000000,0.000000,0.000000
482149306.207844,0.063293,-0.010849,-1.055893,0.009386,0.009107,0.008292,0.999921,0.008377,-0.009386,-0.008292,0.999924,0.009107,0.009461,-0.009029,0.999914,0.009386,-0.009107,-0.999914,0.002440,-0.001803,-0.068109,-0.000366,-0.010137,-0.004377,346.308929,350.771729,-1.000000,0.000000,0.000000
482149306.216537,0.063293,-0.010849,-1.055893,0.009386,0.009107,0.008292,0.999921,0.008377,-0.009386,-0.008292,0.999924,0.009107,0.009461,-0.009029,0.999914,0.009386,-0.009107,-0.999914,0.002440,-0.001803,-0.068109,-0.000366,-0.010137,-0.004377,346.308929,350.771729,-1.000000,0.000000,0.000000
482149306.227649,0.087204,-0.019165,-1.042984,0.009386,0.009107,0.008292,0.999921,0.008377,-0.009386,-0.008292,0.999924,0.009107,0.009461,-0.009029,0.999914,0.009386,-0.009107,-0.999914,0.002440,-0.001803,-0.068109,-0.000366,-0.010137,-0.004377,346.308929,350.771729,-1.000000,0.000000,0.000000
482149306.237545,0.014893,-0.012009,-1.074860,0.009386,0.009107,0.008292,0.999921,0.008377,-0.009386,-0.008292,0.999924,0.009107,0.009461,-0.009029,0.999914,0.009386,-0.009107,-0.999914,0.002440,-0.001803,-0.068109,-0.000366,-0.010137,-0.004377,346.308929,350.771729,-1.000000,0.000000,0.000000
482149306.247682,-0.020096,-0.010101,-1.040817,0.009386,0.009107,0.008292,0.999921,0.008377,-0.009386,-0.008292,0.999924,0.009107,0.009461,-0.009029,0.999914,0.009386,-0.009107,-0.999914,0.002440,-0.001803,-0.068109,-0.000366,-0.010137,-0.004377,346.308929,350.771729,-1.000000,0.000000,0.000000
482149306.257616,-0.141953,-0.011780,-1.048538,0.009386,0.009107,0.008292,0.999921,0.008377,-0.009386,-0.008292,0.999924,0.009107,0.009461,-0.009029,0.999914,0.009386,-0.009107,-0.999914,0.002440,-0.001803,-0.068109,-0.000366,-0.010137,-0.004377,346.308929,350.771729,-1.000000,0.000000,0.000000
482149306.267653,-0.043854,-0.006775,-1.056671,0.014018,0.014092,-0.000094,0.999902,0.000103,-0.014016,0.000094,0.999901,0.014092,0.014016,-0.014092,0.999802,0.014016,-0.014092,-0.999802,-0.034112,0.003990,-0.041015,0.004614,0.000390,-0.002112,346.308929,350.771729,-1.000000,0.000000,0.000000
482149306.277957,-0.031738,-0.011108,-1.072250,0.014018,0.014092,-0.000094,0.999902,0.000103,-0.014016,0.000094,0.999901,0.014092,0.014016,-0.014092,0.999802,0.014016,-0.014092,-0.999802,-0.034112,0.003990,-0.041015,0.004614,0.000390,-0.002112,346.308929,350.771729,-1.000000,0.000000,0.000000
482149306.286915,-0.071579,-0.007248,-1.058823,0.014011,0.014113,-0.000103,0.999902,0.000095,-0.014009,0.000103,0.999900,0.014112,0.014009,-0.014113,0.999802,0.014009,-0.014112,-0.999802,-0.155961,0.002333,-0.048736,0.003369,-0.000742,0.001574,346.308929,350.771729,-1.000000,0.000000,0.000000
482149306.297677,-0.041977,-0.000916,-1.062515,0.013968,0.014293,-0.000027,0.999902,0.000173,-0.013967,0.000027,0.999898,0.014293,0.013968,-0.014292,0.999800,0.013967,-0.014293,-0.999800,-0.057820,0.007518,-0.056871,0.016915,-0.000594,0.007790,346.308929,350.771729,-1.000000,0.000000,0.000000
482149306.308364,-0.041977,-0.000916,-1.062515,0.013968,0.014293,-0.000027,0.999902,0.000173,-0.013967,0.000027,0.999898,0.014293,0.013968,-0.014292,0.999800,0.013967,-0.014293,-0.999800,-0.057820,0.007518,-0.056871,0.016915,-0.000594,0.007790,346.308929,350.771729,-1.000000,0.000000,0.000000
482149306.317536,0.049255,-0.000732,-1.069687,0.013967,0.014344,-0.000012,0.999902,0.000188,-0.013965,0.000012,0.999897,0.014344,0.013966,-0.014343,0.999800,0.013965,-0.014344,-0.999800,-0.045703,0.003235,-0.072451,0.000906,0.000384,0.000333,346.308929,350.771729,-1.000000,0.000000,0.000000
482149306.327519,0.146469,-0.003601,-1.066055,0.013963,0.014386,0.000030,0.999902,0.000231,-0.013961,-0.000030,0.999897,0.014386,0.013963,-0.014384,0.999799,0.013961,-0.014386,-0.999799,-0.055938,0.013470,-0.062716,-0.004035,0.000370,0.002773,346.308929,350.771729,-1.000000,0.000000,0.000000
482149306.337807,0.042526,-0.013397,-1.055054,0.013963,0.014386,0.000030,0.999902,0.000231,-0.013961,-0.000030,0.999897,0.014386,0.013963,-0.014384,0.999799,0.013961,-0.014386,-0.999799,-0.055938,0.013470,-0.062716,-0.004035,0.000370,0.002773,346.308929,350.771729,-1.000000,0.000000,0.000000
482149306.347219,0.063370,-0.012863,-1.061768,0.013967,0.014444,0.000075,0.999902,0.000276,-0.013965,-0.000075,0.999896,0.014443,0.013967,-0.014441,0.999798,0.013965,-0.014443,-0.999798,0.035291,0.013711,-0.069889,0.007060,-0.003004,0.004049,346.308929,350.771729,-1.000000,0.000000,0.000000
482149306.357626,0.125931,-0.018021,-1.055450,0.013975,0.014491,0.000003,0.999902,0.000205,-0.013973,-0.000003,0.999895,0.014490,0.013974,-0.014489,0.999797,0.013973,-0.014490,-0.999797,0.028553,0.001093,-0.055256,0.004631,0.003812,-0.007031,346.308929,350.771729,-1.000000,0.000000,0.000000
482149306.367747,0.062393,-0.008957,-1.074524,0.013975,0.014491,0.000003,0.999902,0.000205,-0.013973,-0.000003,0.999895,0.014490,0.013974,-0.014489,0.999797,0.013973,-0.014490,-0.999797,0.028553,0.001093,-0.055256,0.004631,0.003812,-0.007031,346.308929,350.771729,-1.000000,0.000000,0.000000
482149306.377442,-0.029846,-0.012970,-1.050659,0.013973,0.014500,0.000030,0.999902,0.000232,-0.013971,-0.000030,0.999895,0.014499,0.013973,-0.014497,0.999797,0.013971,-0.014499,-0.999797,0.049399,0.001636,-0.061970,-0.001577,-0.000746,0.005244,346.308929,350.771729,-1.000000,0.000000,0.000000
482149306.387644,-0.048599,-0.008835,-1.079224,0.014053,0.014572,0.000048,0.999901,0.000252,-0.014051,-0.000048,0.999894,0.014571,0.014054,-0.014569,0.999795,0.014051,-0.014571,-0.999795,0.111879,-0.003450,-0.055655,-0.000309,0.004953,-0.004589,346.308929,350.771729,-1.000000,0.000000,0.000000
482149306.398617,-0.139877,-0.010910,-1.061264,0.014053,0.014572,0.000048,0.999901,0.000252,-0.014051,-0.000048,0.999894,0.014571,0.014054,-0.014569,0.999795,0.014051,-0.014571,-0.999795,0.111879,-0.003450,-0.055655,-0.000309,0.004953,-0.004589,346.308929,350.771729,-1.000000,0.000000,0.000000
482149306.408586,-0.139877,-0.010910,-1.061264,0.014046,0.014604,0.000002,0.999901,0.000208,-0.014044,-0.000002,0.999893,0.014603,0.014046,-0.014602,0.999795,0.014044,-0.014603,-0.999795,0.048349,0.005646,-0.074729,0.002155,-0.001958,-0.004590,346.308929,350.771729,-1.000000,0.000000,0.000000
482149306.417531,-0.033737,-0.009109,-1.076172,0.014015,0.014651,-0.000057,0.999902,0.000148,-0.014013,0.000057,0.999893,0.014650,0.014014,-0.014650,0.999794,0.014013,-0.014650,-0.999794,-0.062612,0.005815,-0.079429,0.002159,-0.003123,-0.005822,346.308929,350.771729,-1.000000,0.000000,0.000000
482149306.427860,-0.067566,-0.015137,-1.039185,0.014015,0.014651,-0.000057,0.999902,0.000148,-0.014013,0.000057,0.999893,0.014650,0.014014,-0.014650,0.999794,0.014013,-0.014650,-0.999794,-0.062612,0.005815,-0.079429,0.002159,-0.003123,-0.005822,346.308929,350.771729,-1.000000,0.000000,0.000000
482149306.437692,-0.061356,-0.017456,-1.068542,0.014002,0.014617,-0.000084,0.999902,0.000121,-0.014000,0.000084,0.999893,0.014617,0.014000,-0.014617,0.999795,0.014000,-0.014617,-0.999795,-0.153877,0.003707,-0.061469,-0.005257,-0.001979,-0.000930,346.308929,350.771729,-1.000000,0.000000,0.000000
482149306.447555,0.012665,-0.007858,-1.055267,0.014009,0.014653,-0.000114,0.999902,0.000091,-0.014007,0.000114,0.999893,0.014652,0.014007,-0.014652,0.999795,0.014007,-0.014652,-0.999795,-0.047745,0.005543,-0.076377,0.002140,0.001548,0.000340,346.308929,350.771729,-1.000000,0.000000,0.000000
482149306.457630,0.071243,-0.011017,-1.058762,0.014024,0.014661,-0.000129,0.999902,0.000077,-0.014023,0.000129,0.999893,0.014661,0.014022,-0.014661,0.999794,0.014023,-0.014661,-0.999794,-0.081588,-0.000476,-0.039390,0.003389,-0.000794,-0.004582,346.308929,350.771729,-1.000000,0.000000,0.000000
482149306.467866,0.142685,-0.008545,-1.074890,0.014024,0.014661,-0.000129,0.999902,0.000077,-0.014023,0.000129,0.999893,0.014661,0.014022,-0.014661,0.999794,0.014023,-0.014661,-0.999794,-0.081588,-0.000476,-0.039390,0.003389,-0.000794,-0.004582,346.308929,350.771729,-1.000000,0.000000,0.000000
482149306.477534,0.155258,-0.001694,-1.053253,0.014078,0.014739,-0.000171,0.999901,0.000037,-0.014076,0.000171,0.999891,0.014738,0.014075,-0.014739,0.999792,0.014076,-0.014738,-0.999792,-0.001411,0.006880,-0.055475,0.002140,0.001548,0.000340,346.308929,350.771729,-1.000000,0.000000,0.000000
482149306.487661,0.036697,-0.015350,-1.065872,0.014104,0.014814,-0.000114,0.999901,0.000095,-0.014102,0.000114,0.999890,0.014813,0.014102,-0.014814,0.999791,0.014102,-0.014813,-0.999791,0.057141,0.003797,-0.058971,0.007053,0.002790,0.006520,346.308929,350.771729,-1.000000,0.000000,0.000000
482149306.500203,0.122818,-0.012955,-1.054474,0.014100,0.014869,-0.000019,0.999901,0.000191,-0.014098,0.000019,0.999889,0.014868,0.014099,-0.014867,0.999790,0.014098,-0.014868,-0.999790,0.141161,0.013174,-0.053463,0.009520,0.001653,0.006529,346.308929,350.771729,-1.000000,0.000000,0.000000
482149306.507688,0.122818,-0.012955,-1.054474,0.014100,0.014869,-0.000019,0.999901,0.000191,-0.014098,0.000019,0.999889,0.014868,0.014099,-0.014867,0.999790,0.014098,-0.014868,-0.999790,0.141161,0.013174,-0.053463,0.009520,0.001653,0.006529,346.308929,350.771729,-1.000000,0.000000,0.000000
482149306.517470,0.031555,-0.006363,-1.069809,0.014120,0.014883,-0.000022,0.999900,0.000189,-0.014118,0.000022,0.999889,0.014883,0.014119,-0.014882,0.999790,0.014118,-0.014883,-0.999790,0.022579,-0.000467,-0.066083,-0.000310,0.002643,-0.004594,346.308929,350.771729,-1.000000,0.000000,0.000000
482149306.527671,-0.006195,-0.009415,-1.043655,0.014120,0.014883,-0.000022,0.999900,0.000189,-0.014118,0.000022,0.999889,0.014883,0.014119,-0.014882,0.999790,0.014118,-0.014883,-0.999790,0.022579,-0.000467,-0.066083,-0.000310,0.002643,-0.004594,346.308929,350.771729,-1.000000,0.000000,0.000000
482149306.537393,-0.089218,-0.006149,-1.092255,0.014139,0.014914,0.000050,0.999900,0.000261,-0.014137,-0.000050,0.999889,0.014913,0.014139,-0.014911,0.999789,0.014137,-0.014913,-0.999789,0.108681,0.001959,-0.054685,0.000878,-0.000697,0.008948,346.308929,350.771729,-1.000000,0.000000,0.000000
482149306.547180,-0.185669,-0.006943,-1.047882,0.014136,0.014917,0.000071,0.999900,0.000282,-0.014134,-0.000071,0.999889,0.014916,0.014137,-0.014914,0.999789,0.014134,-0.014916,-0.999789,0.017421,0.008553,-0.070020,-0.000326,0.003840,0.000332,346.308929,350.771729,-1.000000,0.000000,0.000000
482149306.569645,-0.047729,-0.007751,-1.066483,0.014136,0.014917,0.000071,0.999900,0.000282,-0.014134,-0.000071,0.999889,0.014916,0.014137,-0.014914,0.999789,0.014134,-0.014916,-0.999789,0.017421,0.008553,-0.070020,-0.000326,0.003840,0.000332,346.308929,350.771729,-1.000000,0.000000,0.000000
482149306.577581,-0.073364,-0.010345,-1.079407,0.014136,0.014962,0.000134,0.999900,0.000346,-0.014134,-0.000134,0.999888,0.014962,0.014138,-0.014958,0.999788,0.014134,-0.014962,-0.999788,-0.199803,0.008019,-0.048094,-0.005264,0.002660,0.001539,346.308929,350.771729,-1.000000,0.000000,0.000000
482149306.588589,0.019592,-0.008942,-1.048355,0.014136,0.014962,0.000134,0.999900,0.000346,-0.014134,-0.000134,0.999888,0.014962,0.014138,-0.014958,0.999788,0.014134,-0.014962,-0.999788,-0.199803,0.008019,-0.048094,-0.005264,0.002660,0.001539,346.308929,350.771729,-1.000000,0.000000,0.000000
482149306.597568,0.097153,-0.010651,-1.079163,0.014127,0.015016,0.000128,0.999900,0.000340,-0.014125,-0.000128,0.999887,0.015015,0.014128,-0.015012,0.999788,0.014125,-0.015015,-0.999788,-0.067103,0.016358,-0.054961,0.000906,-0.000770,0.000330,346.308929,350.771729,-1.000000,0.000000,0.000000
482149306.607827,0.097153,-0.010651,-1.079163,0.014137,0.015042,0.000077,0.999900,0.000290,-0.014135,-0.000077,0.999887,0.015041,0.014137,-0.015039,0.999787,0.014135,-0.015041,-0.999787,-0.067113,0.016384,-0.054962,-0.001537,-0.000851,-0.007067,346.308929,350.771729,-1.000000,0.000000,0.000000
482149306.618608,0.111572,0.001144,-1.054535,0.014137,0.015042,0.000077,0.999900,0.000290,-0.014135,-0.000077,0.999887,0.015041,0.014137,-0.015039,0.999787,0.014135,-0.015041,-0.999787,-0.067113,0.016384,-0.054962,-0.001537,-0.000851,-0.007067,346.308929,350.771729,-1.000000,0.000000,0.000000
482149306.627361,0.028564,-0.007263,-1.064941,0.014049,0.015138,0.000113,0.999901,0.000325,-0.014047,-0.000113,0.999885,0.015137,0.014050,-0.015134,0.999787,0.014047,-0.015137,-0.999787,0.005545,0.006196,-0.048568,0.005838,-0.007664,0.000342,346.308929,350.771729,-1.000000,0.000000,0.000000
482149306.637032,0.036499,-0.007416,-1.065857,0.014013,0.015171,0.000157,0.999902,0.000370,-0.014011,-0.000157,0.999885,0.015171,0.014015,-0.015167,0.999787,0.014011,-0.015171,-0.999787,0.083141,0.004520,-0.079376,-0.000331,0.001541,0.001560,346.308929,350.771729,-1.000000,0.000000,0.000000
482149306.647648,0.132416,0.001709,-1.059280,0.014010,0.015182,0.000122,0.999902,0.000334,-0.014008,-0.000122,0.999885,0.015182,0.014011,-0.015179,0.999787,0.014008,-0.015182,-0.999787,0.014557,0.007919,-0.065155,0.000906,-0.001925,0.000328,346.308929,350.771729,-1.000000,0.000000,0.000000
482149306.657780,0.111023,-0.010895,-1.075134,0.014010,0.015182,0.000122,0.999902,0.000334,-0.014008,-0.000122,0.999885,0.015182,0.014011,-0.015179,0.999787,0.014008,-0.015182,-0.999787,0.014557,0.007919,-0.065155,0.000906,-0.001925,0.000328,346.308929,350.771729,-1.000000,0.000000,0.000000
482149306.667237,0.022705,-0.012070,-1.062057,0.014003,0.015215,0.000095,0.999902,0.000308,-0.014000,-0.000095,0.999884,0.015214,0.014004,-0.015212,0.999786,0.014000,-0.015214,-0.999786,0.022499,0.007799,-0.066071,0.004619,0.003843,-0.003338,346.308929,350.771729,-1.000000,0.000000,0.000000
482149306.677680,-0.028992,-0.007050,-1.054596,0.014038,0.015245,0.000161,0.999901,0.000375,-0.014036,-0.000161,0.999884,0.015245,0.014040,-0.015241,0.999785,0.014036,-0.015245,-0.999785,0.096987,0.004350,-0.075349,0.000910,0.000374,-0.000899,346.308929,350.771729,-1.000000,0.000000,0.000000
482149306.687827,-0.135117,-0.007904,-1.045547,0.014038,0.015245,0.000161,0.999901,0.000375,-0.014036,-0.000161,0.999884,0.015245,0.014040,-0.015241,0.999785,0.014036,-0.015245,-0.999785,0.096987,0.004350,-0.075349,0.000910,0.000374,-0.000899,346.308929,350.771729,-1.000000,0.000000,0.000000
482149306.696987,-0.032822,-0.005188,-1.080093,0.014030,0.015303,0.000199,0.999902,0.000414,-0.014028,-0.000199,0.999883,0.015302,0.014033,-0.015298,0.999785,0.014028,-0.015302,-0.999785,0.096995,0.004407,-0.075350,0.008290,0.000478,0.005290,346.308929,350.771729,-1.000000,0.000000,0.000000
482149306.707941,-0.084625,-0.004944,-1.046158,0.014004,0.015356,0.000205,0.999902,0.000420,-0.014002,-0.000205,0.999882,0.015356,0.014007,-0.015351,0.999784,0.014002,-0.015356,-0.999784,-0.042994,0.008306,-0.054812,-0.000348,-0.003037,0.006476,346.308929,350.771729,-1.000000,0.000000,0.000000
482149306.717991,-0.079407,-0.005280,-1.082397,0.014004,0.015356,0.000205,0.999902,0.000420,-0.014002,-0.000205,0.999882,0.015356,0.014007,-0.015351,0.999784,0.014002,-0.015356,-0.999784,-0.042994,0.008306,-0.054812,-0.000348,-0.003037,0.006476,346.308929,350.771729,-1.000000,0.000000,0.000000
482149306.726564,-0.079407,-0.005280,-1.082397,0.013979,0.015366,0.000274,0.999902,0.000489,-0.013977,-0.000274,0.999882,0.015365,0.013983,-0.015360,0.999784,0.013977,-0.015365,-0.999784,-0.149094,0.007461,-0.045763,0.000890,-0.001884,0.005252,346.308929,350.771729,-1.000000,0.000000,0.000000
482149306.737690,-0.036896,-0.010818,-1.045837,0.013908,0.015396,0.000286,0.999903,0.000500,-0.013906,-0.000286,0.999881,0.015395,0.013912,-0.015390,0.999785,0.013906,-0.015395,-0.999785,-0.098531,0.010451,-0.046373,-0.001582,-0.004200,0.006469,346.308929,350.771729,-1.000000,0.000000,0.000000
482149306.749839,0.031555,-0.005386,-1.073730,0.013908,0.015396,0.000286,0.999903,0.000500,-0.013906,-0.000286,0.999881,0.015395,0.013912,-0.015390,0.999785,0.013906,-0.015395,-0.999785,-0.098531,0.010451,-0.046373,-0.001582,-0.004200,0.006469,346.308929,350.771729,-1.000000,0.000000,0.000000
482149306.757766,0.115829,-0.010834,-1.053543,0.013923,0.015386,0.000283,0.999903,0.000497,-0.013921,-0.000283,0.999882,0.015386,0.013927,-0.015380,0.999785,0.013921,-0.015386,-0.999785,-0.093328,0.010106,-0.082613,-0.001545,0.000325,-0.004603,346.308929,350.771729,-1.000000,0.000000,0.000000
482149306.767124,0.044510,-0.011490,-1.060913,0.013845,0.015381,0.000343,0.999904,0.000556,-0.013843,-0.000343,0.999882,0.015381,0.013850,-0.015374,0.999786,0.013843,-0.015381,-0.999786,0.017712,0.009994,-0.073945,-0.000302,0.000346,0.001968,346.308929,350.771729,-1.000000,0.000000,0.000000
482149306.778138,0.055222,-0.003769,-1.059845,0.013845,0.015381,0.000343,0.999904,0.000556,-0.013843,-0.000343,0.999882,0.015381,0.013850,-0.015374,0.999786,0.013843,-0.015381,-0.999786,0.017712,0.009994,-0.073945,-0.000302,0.000346,0.001968,346.308929,350.771729,-1.000000,0.000000,0.000000
482149306.787620,0.117783,-0.003128,-1.077026,0.013837,0.015409,0.000392,0.999904,0.000605,-0.013835,-0.000392,0.999881,0.015408,0.013842,-0.015401,0.999786,0.013835,-0.015408,-0.999786,0.017720,0.010022,-0.073945,0.004623,0.000402,0.004453,346.308929,350.771729,-1.000000,0.000000,0.000000
482149306.797471,0.073257,-0.014954,-1.048965,0.013855,0.015415,0.000371,0.999904,0.000584,-0.013853,-0.000371,0.999881,0.015414,0.013860,-0.015408,0.999785,0.013853,-0.015414,-0.999785,0.030657,0.003924,-0.061128,-0.000297,0.002645,0.000740,346.308929,350.771729,-1.000000,0.000000,0.000000
482149306.808306,-0.000961,-0.013657,-1.070068,0.013920,0.015429,0.000330,0.999903,0.000545,-0.013918,-0.000330,0.999881,0.015429,0.013925,-0.015423,0.999784,0.013918,-0.015429,-0.999784,0.041304,0.011660,-0.060061,0.003408,0.004971,-0.000470,346.308929,350.771729,-1.000000,0.000000,0.000000
482149306.818157,-0.000961,-0.013657,-1.070068,0.013920,0.015429,0.000330,0.999903,0.000545,-0.013918,-0.000330,0.999881,0.015429,0.013925,-0.015423,0.999784,0.013918,-0.015429,-0.999784,0.041304,0.011660,-0.060061,0.003408,0.004971,-0.000470,346.308929,350.771729,-1.000000,0.000000,0.000000
482149306.828435,-0.048706,-0.011627,-1.052765,0.013932,0.015563,0.000457,0.999903,0.000674,-0.013930,-0.000457,0.999879,0.015562,0.013939,-0.015555,0.999782,0.013930,-0.015562,-0.999782,0.059327,0.000609,-0.049184,0.004631,-0.003083,0.001985,346.308929,350.771729,-1.000000,0.000000,0.000000
482149306.838807,-0.010025,-0.011414,-1.056427,0.013901,0.015603,0.000529,0.999903,0.000746,-0.013899,-0.000529,0.999878,0.015602,0.013909,-0.015593,0.999782,0.013899,-0.015602,-0.999782,-0.014861,0.001946,-0.070287,0.007076,-0.008788,0.008142,346.308929,350.771729,-1.000000,0.000000,0.000000
482149306.847351,-0.010025,-0.011414,-1.056427,0.013901,0.015603,0.000529,0.999903,0.000746,-0.013899,-0.000529,0.999878,0.015602,0.013909,-0.015593,0.999782,0.013899,-0.015602,-0.999782,-0.014861,0.001946,-0.070287,0.007076,-0.008788,0.008142,346.308929,350.771729,-1.000000,0.000000,0.000000
482149306.857591,-0.071381,-0.013275,-1.067642,0.013948,0.015705,0.000561,0.999902,0.000780,-0.013946,-0.000561,0.999876,0.015705,0.013956,-0.015695,0.999779,0.013946,-0.015705,-0.999779,-0.062652,0.004078,-0.052985,0.005856,-0.001899,0.004454,346.308929,350.771729,-1.000000,0.000000,0.000000
482149306.867497,-0.049515,-0.017624,-1.060623,0.013940,0.015721,0.000574,0.999903,0.000793,-0.013938,-0.000574,0.999876,0.015720,0.013948,-0.015711,0.999779,0.013938,-0.015720,-0.999779,-0.138892,0.002521,-0.061378,-0.000302,-0.003118,0.001962,346.308929,350.771729,-1.000000,0.000000,0.000000
482149306.877721,-0.023102,-0.002258,-1.060410,0.013940,0.015721,0.000574,0.999903,0.000793,-0.013938,-0.000574,0.999876,0.015720,0.013948,-0.015711,0.999779,0.013938,-0.015720,-0.999779,-0.138892,0.002521,-0.061378,-0.000302,-0.003118,0.001962,346.308929,350.771729,-1.000000,0.000000,0.000000
482149306.887380,0.068314,-0.010010,-1.066635,0.013962,0.015788,0.000707,0.999902,0.000928,-0.013960,-0.000707,0.999875,0.015788,0.013973,-0.015776,0.999778,0.013960,-0.015788,-0.999778,-0.085341,0.002513,-0.067864,-0.000314,-0.001932,0.005657,346.308929,350.771729,-1.000000,0.000000,0.000000
482149306.897641,0.112732,-0.007767,-1.047668,0.013983,0.015839,0.000702,0.999902,0.000923,-0.013981,-0.000702,0.999874,0.015839,0.013994,-0.015827,0.999777,0.013981,-0.015839,-0.999777,-0.063496,-0.001785,-0.060846,0.008340,0.003851,-0.000450,346.308929,350.771729,-1.000000,0.000000,0.000000
482149306.907788,0.080154,-0.007294,-1.070450,0.013983,0.015839,0.000702,0.999902,0.000923,-0.013981,-0.000702,0.999874,0.015839,0.013994,-0.015827,0.999777,0.013981,-0.015839,-0.999777,-0.063496,-0.001785,-0.060846,0.008340,0.003851,-0.000450,346.308929,350.771729,-1.000000,0.000000,0.000000
482149306.917656,0.043594,-0.016418,-1.054077,0.013990,0.015924,0.000710,0.999902,0.000932,-0.013988,-0.000710,0.999873,0.015923,0.014001,-0.015912,0.999775,0.013988,-0.015923,-0.999775,0.054326,0.005913,-0.066860,0.000952,0.002612,-0.004179,346.308929,350.771729,-1.000000,0.000000,0.000000
482149306.927680,0.043594,-0.016418,-1.054077,0.014022,0.015938,0.000657,0.999901,0.000880,-0.014020,-0.000657,0.999873,0.015938,0.014032,-0.015927,0.999775,0.014020,-0.015938,-0.999775,0.098712,0.008171,-0.047894,0.002193,0.002599,-0.006635,346.308929,350.771729,-1.000000,0.000000,0.000000
482149306.939232,0.113770,-0.006866,-1.058441,0.014022,0.015938,0.000657,0.999901,0.000880,-0.014020,-0.000657,0.999873,0.015938,0.014032,-0.015927,0.999775,0.014020,-0.015938,-0.999775,0.098712,0.008171,-0.047894,0.002193,0.002599,-0.006635,346.308929,350.771729,-1.000000,0.000000,0.000000
482149306.947537,0.045471,-0.007614,-1.070709,0.014024,0.016064,0.000622,0.999901,0.000847,-0.014021,-0.000622,0.999871,0.016063,0.014033,-0.016053,0.999773,0.014021,-0.016063,-0.999773,0.066133,0.008770,-0.070677,0.003401,-0.003102,0.000748,346.308929,350.771729,-1.000000,0.000000,0.000000
482149306.957632,0.013855,-0.014877,-1.061142,0.014016,0.016055,0.000623,0.999901,0.000848,-0.014013,-0.000623,0.999871,0.016055,0.014025,-0.016044,0.999773,0.014013,-0.016055,-0.999773,0.029581,-0.000364,-0.054304,-0.001520,-0.000860,-0.002964,346.308929,350.771729,-1.000000,0.000000,0.000000
482149306.968691,-0.099426,-0.005676,-1.054123,0.013966,0.016061,0.000590,0.999902,0.000814,-0.013964,-0.000590,0.999871,0.016060,0.013975,-0.016051,0.999774,0.013964,-0.016060,-0.999774,0.031507,0.008446,-0.070936,-0.000292,-0.007769,-0.001739,346.308929,350.771729,-1.000000,0.000000,0.000000
482149306.977486,-0.151749,-0.014618,-1.054504,0.013966,0.016061,0.000590,0.999902,0.000814,-0.013964,-0.000590,0.999871,0.016060,0.013975,-0.016051,0.999774,0.013964,-0.016060,-0.999774,0.031507,0.008446,-0.070936,-0.000292,-0.007769,-0.001739,346.308929,350.771729,-1.000000,0.000000,0.000000
482149306.988115,-0.035904,-0.005966,-1.060501,0.013919,0.016028,0.000561,0.999903,0.000784,-0.013917,-0.000561,0.999871,0.016027,0.013927,-0.016018,0.999775,0.013917,-0.016027,-0.999775,-0.000062,0.001150,-0.061367,-0.005212,-0.003216,-0.005447,346.308929,350.771729,-1.000000,0.000000,0.000000
482149306.998073,-0.047668,-0.016556,-1.044922,0.013886,0.016082,0.000563,0.999903,0.000786,-0.013884,-0.000563,0.999871,0.016082,0.013895,-0.016072,0.999774,0.013884,-0.016082,-0.999774,-0.165633,0.001464,-0.054730,-0.000295,-0.004294,-0.000502,346.308929,350.771729,-1.000000,0.000000,0.000000
482149307.008444,-0.056549,-0.007690,-1.080276,0.013886,0.016082,0.000563,0.999903,0.000786,-0.013884,-0.000563,0.999871,0.016082,0.013895,-0.016072,0.999774,0.013884,-0.016082,-0.999774,-0.165633,0.001464,-0.054730,-0.000295,-0.004294,-0.000502,346.308929,350.771729,-1.000000,0.000000,0.000000
482149307.017142,0.027588,-0.001419,-1.083572,0.013884,0.016068,0.000600,0.999903,0.000823,-0.013881,-0.000600,0.999871,0.016067,0.013893,-0.016057,0.999775,0.013881,-0.016067,-0.999775,-0.049785,0.010101,-0.060727,-0.001547,0.001523,0.005657,346.308929,350.771729,-1.000000,0.000000,0.000000
482149307.027150,0.084167,-0.018066,-1.040054,0.013851,0.016056,0.000579,0.999904,0.000801,-0.013849,-0.000579,0.999871,0.016055,0.013860,-0.016046,0.999775,0.013849,-0.016055,-0.999775,-0.061517,-0.000501,-0.045147,-0.000302,0.000345,0.001967,346.308929,350.771729,-1.000000,0.000000,0.000000
482149307.041239,0.084167,-0.018066,-1.040054,0.013832,0.016124,0.000531,0.999904,0.000754,-0.013830,-0.000531,0.999870,0.016124,0.013841,-0.016115,0.999774,0.013830,-0.016124,-0.999774,-0.070379,0.008433,-0.080502,0.012067,-0.001970,-0.009060,346.308929,350.771729,-1.000000,0.000000,0.000000
482149307.047402,0.124832,-0.006271,-1.083847,0.013832,0.016124,0.000531,0.999904,0.000754,-0.013830,-0.000531,0.999870,0.016124,0.013841,-0.016115,0.999774,0.013830,-0.016124,-0.999774,-0.070379,0.008433,-0.080502,0.012067,-0.001970,-0.009060,346.308929,350.771729,-1.000000,0.000000,0.000000
482149307.061427,0.050262,-0.004639,-1.056931,0.013839,0.016245,0.000574,0.999904,0.000799,-0.013837,-0.000574,0.999868,0.016244,0.013848,-0.016235,0.999772,0.013837,-0.016244,-0.999772,0.070330,-0.001822,-0.040282,-0.001543,0.000358,0.004424,346.308929,350.771729,-1.000000,0.000000,0.000000
482149307.067321,0.050262,-0.004639,-1.056931,0.013839,0.016245,0.000574,0.999904,0.000799,-0.013837,-0.000574,0.999868,0.016244,0.013848,-0.016235,0.999772,0.013837,-0.016244,-0.999772,0.070330,-0.001822,-0.040282,-0.001543,0.000358,0.004424,346.308929,350.771729,-1.000000,0.000000,0.000000
482149307.076929,0.124695,-0.001297,-1.081879,0.013837,0.016266,0.000575,0.999904,0.000800,-0.013835,-0.000575,0.999868,0.016265,0.013846,-0.016256,0.999772,0.013835,-0.016265,-0.999772,0.110997,0.009994,-0.084075,0.004635,-0.000785,0.000757,346.308929,350.771729,-1.000000,0.000000,0.000000
482149307.087735,0.065964,-0.001892,-1.043121,0.013871,0.016262,0.000710,0.999903,0.000935,-0.013868,-0.000710,0.999867,0.016261,0.013882,-0.016250,0.999772,0.013868,-0.016261,-0.999772,0.036394,0.011622,-0.057159,0.000920,0.001541,0.005668,346.308929,350.771729,-1.000000,0.000000,0.000000
482149307.100112,-0.016922,-0.007416,-1.075089,0.013891,0.016307,0.000728,0.999903,0.000955,-0.013889,-0.000728,0.999867,0.016306,0.013902,-0.016295,0.999771,0.013889,-0.016306,-0.999771,0.036374,0.011668,-0.057160,0.007095,0.005027,0.003239,346.308929,350.771729,-1.000000,0.000000,0.000000
482149307.107395,-0.150940,-0.002823,-1.068192,0.013891,0.016307,0.000728,0.999903,0.000955,-0.013889,-0.000728,0.999867,0.016306,0.013902,-0.016295,0.999771,0.013889,-0.016306,-0.999771,0.036374,0.011668,-0.057160,0.007095,0.005027,0.003239,346.308929,350.771729,-1.000000,0.000000,0.000000
482149307.117598,-0.048645,-0.010727,-1.066483,0.013887,0.016391,0.000736,0.999903,0.000963,-0.013884,-0.000736,0.999865,0.016391,0.013898,-0.016379,0.999769,0.013884,-0.016391,-0.999769,0.052079,0.014499,-0.043352,0.007107,0.004996,-0.000454,346.308929,350.771729,-1.000000,0.000000,0.000000
482149307.128960,-0.033112,-0.001999,-1.051666,0.013907,0.016394,0.000719,0.999903,0.000947,-0.013904,-0.000719,0.999865,0.016394,0.013918,-0.016382,0.999769,0.013904,-0.016394,-0.999769,-0.030826,0.008978,-0.075320,-0.001528,-0.001994,-0.000504,346.308929,350.771729,-1.000000,0.000000,0.000000
482149307.138780,-0.076355,-0.012177,-1.065704,0.013907,0.016394,0.000719,0.999903,0.000947,-0.013904,-0.000719,0.999865,0.016394,0.013918,-0.016382,0.999769,0.013904,-0.016394,-0.999769,-0.030826,0.008978,-0.075320,-0.001528,-0.001994,-0.000504,346.308929,350.771729,-1.000000,0.000000,0.000000
482149307.147228,-0.076355,-0.012177,-1.065704,0.013980,0.016377,0.000734,0.999902,0.000963,-0.013978,-0.000734,0.999866,0.016376,0.013992,-0.016364,0.999768,0.013978,-0.016376,-0.999768,-0.062623,0.005649,-0.066714,-0.006460,0.002590,-0.000519,346.308929,350.771729,-1.000000,0.000000,0.000000
482149307.157781,-0.067566,-0.009293,-1.056839,0.013949,0.016344,0.000771,0.999902,0.000999,-0.013947,-0.000771,0.999866,0.016344,0.013962,-0.016331,0.999769,0.013947,-0.016344,-0.999769,-0.047059,0.014345,-0.051897,-0.002770,-0.005446,0.001947,346.308929,350.771729,-1.000000,0.000000,0.000000
482149307.167300,-0.006042,-0.012466,-1.055405,0.013949,0.016344,0.000771,0.999902,0.000999,-0.013947,-0.000771,0.999866,0.016344,0.013962,-0.016331,0.999769,0.013947,-0.016344,-0.999769,-0.047059,0.014345,-0.051897,-0.002770,-0.005446,0.001947,346.308929,350.771729,-1.000000,0.000000,0.000000
482149307.177825,0.086273,-0.012390,-1.074341,0.013984,0.016345,0.000762,0.999902,0.000990,-0.013982,-0.000761,0.999866,0.016344,0.013996,-0.016332,0.999769,0.013982,-0.016344,-0.999769,-0.090337,0.004167,-0.065936,0.009572,0.000395,-0.000450,346.308929,350.771729,-1.000000,0.000000,0.000000
482149307.187622,0.134369,-0.001251,-1.046524,0.014016,0.016323,0.000709,0.999901,0.000938,-0.014013,-0.000709,0.999867,0.016322,0.014027,-0.016311,0.999769,0.014013,-0.016322,-0.999769,-0.081579,0.007030,-0.057070,-0.005217,0.007197,-0.002969,346.308929,350.771729,-1.000000,0.000000,0.000000
482149307.197805,0.048355,-0.013397,-1.037354,0.014016,0.016323,0.000709,0.999901,0.000938,-0.014013,-0.000709,0.999867,0.016322,0.014027,-0.016311,0.999769,0.014013,-0.016322,-0.999769,-0.081579,0.007030,-0.057070,-0.005217,0.007197,-0.002969,346.308929,350.771729,-1.000000,0.000000,0.000000
482149307.207559,0.078506,-0.012421,-1.098892,0.014078,0.016318,0.000730,0.999900,0.000959,-0.014076,-0.000729,0.999867,0.016317,0.014089,-0.016305,0.999768,0.014076,-0.016317,-0.999768,0.072198,0.003927,-0.074573,-0.000305,0.002665,0.003201,346.308929,350.771729,-1.000000,0.000000,0.000000
482149307.217856,0.115097,-0.023697,-1.047668,0.014132,0.016363,0.000718,0.999900,0.000950,-0.014130,-0.000718,0.999866,0.016362,0.014143,-0.016350,0.999766,0.014130,-0.016362,-0.999766,0.120239,0.015111,-0.046758,0.007116,0.008439,-0.002911,346.308929,350.771729,-1.000000,0.000000,0.000000
482149307.229825,0.115097,-0.023697,-1.047668,0.014132,0.016363,0.000718,0.999900,0.000950,-0.014130,-0.000718,0.999866,0.016362,0.014143,-0.016350,0.999766,0.014130,-0.016362,-0.999766,0.120239,0.015111,-0.046758,0.007116,0.008439,-0.002911,346.308929,350.771729,-1.000000,0.000000,0.000000
482149307.236683,0.049606,-0.015610,-1.066772,0.014111,0.016326,0.000607,0.999900,0.000838,-0.014109,-0.000607,0.999867,0.016325,0.014120,-0.016315,0.999767,0.014109,-0.016325,-0.999767,0.064398,0.003904,-0.099125,-0.008904,-0.002109,-0.007925,346.308929,350.771729,-1.000000,0.000000,0.000000
482149307.249665,-0.112228,-0.011337,-1.045380,0.014131,0.016275,0.000633,0.999900,0.000863,-0.014128,-0.000633,0.999867,0.016274,0.014140,-0.016264,0.999768,0.014128,-0.016274,-0.999768,0.100969,-0.007423,-0.047901,-0.004022,0.002681,0.008109,346.308929,350.771729,-1.000000,0.000000,0.000000
482149307.258786,-0.112228,-0.011337,-1.045380,0.014131,0.016275,0.000633,0.999900,0.000863,-0.014128,-0.000633,0.999867,0.016274,0.014140,-0.016264,0.999768,0.014128,-0.016274,-0.999768,0.100969,-0.007423,-0.047901,-0.004022,0.002681,0.008109,346.308929,350.771729,-1.000000,0.000000,0.000000
482149307.267440,-0.183426,-0.012115,-1.067459,0.014137,0.016318,0.000671,0.999900,0.000901,-0.014135,-0.000671,0.999867,0.016317,0.014147,-0.016306,0.999767,0.014135,-0.016317,-0.999767,0.035472,0.000707,-0.067006,0.002181,0.002630,-0.002943,346.308929,350.771729,-1.000000,0.000000,0.000000
482149307.277746,-0.045685,-0.008850,-1.072357,0.014117,0.016315,0.000727,0.999900,0.000957,-0.014115,-0.000726,0.999867,0.016315,0.014129,-0.016303,0.999767,0.014115,-0.016315,-0.999767,-0.050904,0.005405,-0.060764,-0.000310,-0.001938,0.005726,346.308929,350.771729,-1.000000,0.000000,0.000000
482149307.288322,-0.069626,-0.001465,-1.075455,0.014101,0.016352,0.000760,0.999900,0.000990,-0.014099,-0.000760,0.999866,0.016351,0.014113,-0.016339,0.999767,0.014099,-0.016351,-0.999767,-0.197525,0.004236,-0.067692,-0.000297,0.000340,0.002036,346.308929,350.771729,-1.000000,0.000000,0.000000
482149307.297615,-0.033951,-0.008911,-1.047760,0.014101,0.016352,0.000760,0.999900,0.000990,-0.014099,-0.000760,0.999866,0.016351,0.014113,-0.016339,0.999767,0.014099,-0.016351,-0.999767,-0.197525,0.004236,-0.067692,-0.000297,0.000340,0.002036,346.308929,350.771729,-1.000000,0.000000,0.000000
482149307.307538,0.021591,-0.000275,-1.081665,0.014110,0.016343,0.000768,0.999900,0.000998,-0.014107,-0.000768,0.999866,0.016343,0.014122,-0.016330,0.999767,0.014107,-0.016343,-0.999767,-0.059792,0.007493,-0.072590,0.000940,0.001493,0.000812,346.308929,350.771729,-1.000000,0.000000,0.000000
482149307.318314,0.124908,-0.020889,-1.045639,0.014161,0.016404,0.000777,0.999899,0.001009,-0.014159,-0.000777,0.999865,0.016403,0.014174,-0.016390,0.999765,0.014159,-0.016403,-0.999765,-0.083785,0.014938,-0.075690,0.004653,0.004952,-0.002858,346.308929,350.771729,-1.000000,0.000000,0.000000
482149307.328260,0.124908,-0.020889,-1.045639,0.014161,0.016404,0.000777,0.999899,0.001009,-0.014159,-0.000777,0.999865,0.016403,0.014174,-0.016390,0.999765,0.014159,-0.016403,-0.999765,-0.083785,0.014938,-0.075690,0.004653,0.004952,-0.002858,346.308929,350.771729,-1.000000,0.000000,0.000000
482149307.337497,0.153580,-0.006805,-1.079727,0.014164,0.016353,0.000785,0.999899,0.001017,-0.014162,-0.000785,0.999866,0.016352,0.014176,-0.016340,0.999766,0.014162,-0.016352,-0.999766,-0.048112,0.007441,-0.047994,-0.006461,-0.003179,0.000771,346.308929,350.771729,-1.000000,0.000000,0.000000
482149307.348731,0.067291,-0.014832,-1.048004,0.014176,0.016336,0.000795,0.999899,0.001027,-0.014173,-0.000795,0.999866,0.016335,0.014188,-0.016322,0.999766,0.014173,-0.016335,-0.999766,0.110735,-0.004554,-0.045873,-0.003993,0.000303,0.000788,346.308929,350.771729,-1.000000,0.000000,0.000000
482149307.356977,0.047424,-0.007645,-1.067749,0.014176,0.016336,0.000795,0.999899,0.001027,-0.014173,-0.000795,0.999866,0.016335,0.014188,-0.016322,0.999766,0.014173,-0.016335,-0.999766,0.110735,-0.004554,-0.045873,-0.003993,0.000303,0.000788,346.308929,350.771729,-1.000000,0.000000,0.000000
482149307.367271,0.078156,-0.009171,-1.060669,0.014162,0.016357,0.000851,0.999899,0.001082,-0.014159,-0.000851,0.999866,0.016357,0.014175,-0.016343,0.999766,0.014159,-0.016357,-0.999766,0.139420,0.009551,-0.079961,0.009556,-0.004178,0.005767,346.308929,350.771729,-1.000000,0.000000,0.000000
482149307.377648,-0.038803,-0.006958,-1.068375,0.014162,0.016370,0.000866,0.999899,0.001098,-0.014160,-0.000866,0.999866,0.016369,0.014176,-0.016355,0.999766,0.014160,-0.016369,-0.999766,0.033264,0.008724,-0.067983,0.004641,0.004983,0.000835,346.308929,350.771729,-1.000000,0.000000,0.000000
482149307.387638,-0.076431,-0.008240,-1.070602,0.014162,0.016370,0.000866,0.999899,0.001098,-0.014160,-0.000866,0.999866,0.016369,0.014176,-0.016355,0.999766,0.014160,-0.016369,-0.999766,0.033264,0.008724,-0.067983,0.004641,0.004983,0.000835,346.308929,350.771729,-1.000000,0.000000,0.000000
482149307.397447,-0.157791,-0.005646,-1.068268,0.014139,0.016420,0.000778,0.999900,0.001010,-0.014136,-0.000778,0.999865,0.016419,0.014151,-0.016407,0.999765,0.014136,-0.016419,-0.999765,0.064019,0.007249,-0.060904,0.000974,-0.007840,-0.010282,346.308929,350.771729,-1.000000,0.000000,0.000000
482149307.407650,-0.082428,-0.009048,-1.061829,0.014139,0.016452,0.000889,0.999899,0.001121,-0.014136,-0.000889,0.999864,0.016451,0.014153,-0.016437,0.999765,0.014136,-0.016451,-0.999765,-0.052939,0.009493,-0.068610,-0.006487,0.003823,0.009400,346.308929,350.771729,-1.000000,0.000000,0.000000
482149307.417776,-0.029037,-0.003143,-1.061432,0.014139,0.016452,0.000889,0.999899,0.001121,-0.014136,-0.000889,0.999864,0.016451,0.014153,-0.016437,0.999765,0.014136,-0.016451,-0.999765,-0.052939,0.009493,-0.068610,-0.006487,0.003823,0.009400,346.308929,350.771729,-1.000000,0.000000,0.000000
482149307.428072,-0.029037,-0.003143,-1.061432,0.014113,0.016431,0.000909,0.999900,0.001141,-0.014111,-0.000909,0.999865,0.016430,0.014128,-0.016416,0.999765,0.014111,-0.016430,-0.999765,-0.090542,0.008190,-0.070837,-0.000290,-0.001991,-0.000430,346.308929,350.771729,-1.000000,0.000000,0.000000
482149307.438487,-0.074509,-0.008224,-1.062759,0.014148,0.016521,0.000924,0.999899,0.001158,-0.014146,-0.000924,0.999863,0.016520,0.014163,-0.016506,0.999763,0.014146,-0.016520,-0.999763,-0.096574,0.007472,-0.062065,-0.004015,0.004943,0.003271,346.308929,350.771729,-1.000000,0.000000,0.000000
482149307.449548,-0.005112,-0.008530,-1.060303,0.014148,0.016521,0.000924,0.999899,0.001158,-0.014146,-0.000924,0.999863,0.016520,0.014163,-0.016506,0.999763,0.014146,-0.016520,-0.999763,-0.096574,0.007472,-0.062065,-0.004015,0.004943,0.003271,346.308929,350.771729,-1.000000,0.000000,0.000000
482149307.457388,0.042480,-0.006577,-1.071701,0.014174,0.016494,0.000914,0.999899,0.001148,-0.014171,-0.000914,0.999864,0.016493,0.014188,-0.016479,0.999764,0.014171,-0.016493,-0.999764,-0.043209,0.013350,-0.061668,-0.001533,0.003764,-0.001644,346.308929,350.771729,-1.000000,0.000000,0.000000
482149307.467613,0.097137,-0.016464,-1.058578,0.014197,0.016488,0.000894,0.999899,0.001128,-0.014195,-0.000894,0.999864,0.016487,0.014211,-0.016473,0.999763,0.014195,-0.016487,-0.999763,-0.019306,0.007958,-0.060539,0.002150,-0.001942,0.003288,346.308929,350.771729,-1.000000,0.000000,0.000000
482149307.478838,0.111816,-0.001038,-1.081009,0.014145,0.016515,0.000860,0.999899,0.001094,-0.014142,-0.000860,0.999863,0.016514,0.014158,-0.016500,0.999764,0.014142,-0.016514,-0.999764,0.028338,0.009937,-0.071937,0.007097,-0.007723,-0.001623,346.308929,350.771729,-1.000000,0.000000,0.000000
482149307.487741,0.057526,-0.014771,-1.066711,0.014145,0.016515,0.000860,0.999899,0.001094,-0.014142,-0.000860,0.999863,0.016514,0.014158,-0.016500,0.999764,0.014142,-0.016514,-0.999764,0.028338,0.009937,-0.071937,0.007097,-0.007723,-0.001623,346.308929,350.771729,-1.000000,0.000000,0.000000
482149307.497256,0.080948,-0.001297,-1.062592,0.014219,0.016587,0.000864,0.999898,0.001099,-0.014216,-0.000863,0.999862,0.016586,0.014233,-0.016572,0.999761,0.014216,-0.016586,-0.999761,0.082921,0.000122,-0.058817,-0.000328,0.003846,0.006979,346.308929,350.771729,-1.000000,0.000000,0.000000
482149307.508178,0.114853,-0.010834,-1.055527,0.014250,0.016608,0.000913,0.999898,0.001150,-0.014247,-0.000913,0.999862,0.016608,0.014264,-0.016593,0.999761,0.014247,-0.016608,-0.999761,0.097569,0.015570,-0.081248,0.004609,0.003870,0.005771,346.308929,350.771729,-1.000000,0.000000,0.000000
482149307.517785,0.034515,-0.006393,-1.066864,0.014250,0.016608,0.000913,0.999898,0.001150,-0.014247,-0.000913,0.999862,0.016608,0.014264,-0.016593,0.999761,0.014247,-0.016608,-0.999761,0.097569,0.015570,-0.081248,0.004609,0.003870,0.005771,346.308929,350.771729,-1.000000,0.000000,0.000000
482149307.526914,-0.058731,-0.003601,-1.067535,0.014345,0.016628,0.001025,0.999896,0.001263,-0.014343,-0.001025,0.999861,0.016627,0.014362,-0.016610,0.999759,0.014343,-0.016627,-0.999759,0.066605,0.015330,-0.062833,0.002148,0.004997,0.004530,346.308929,350.771729,-1.000000,0.000000,0.000000
482149307.538089,-0.127884,-0.016098,-1.057281,0.014337,0.016631,0.001039,0.999896,0.001277,-0.014334,-0.001039,0.999861,0.016630,0.014354,-0.016613,0.999759,0.014334,-0.016630,-0.999759,0.100518,0.005796,-0.055768,-0.000317,-0.003114,0.003275,346.308929,350.771729,-1.000000,0.000000,0.000000
482149307.547594,-0.127884,-0.016098,-1.057281,0.014337,0.016631,0.001039,0.999896,0.001277,-0.014334,-0.001039,0.999861,0.016630,0.014354,-0.016613,0.999759,0.014334,-0.016630,-0.999759,0.100518,0.005796,-0.055768,-0.000317,-0.003114,0.003275,346.308929,350.771729,-1.000000,0.000000,0.000000
482149307.572337,-0.036835,-0.011841,-1.051712,0.014292,0.016595,0.001079,0.999897,0.001316,-0.014290,-0.001079,0.999862,0.016594,0.014309,-0.016577,0.999760,0.014290,-0.016594,-0.999760,-0.073021,0.012993,-0.067775,-0.001537,0.002619,-0.000415,346.308929,350.771729,-1.000000,0.000000,0.000000
482149307.576901,-0.072311,-0.017181,-1.060776,0.014317,0.016581,0.001099,0.999897,0.001336,-0.014315,-0.001099,0.999862,0.016580,0.014335,-0.016562,0.999760,0.014315,-0.016580,-0.999760,-0.073046,0.012979,-0.067775,0.000916,-0.000796,0.003284,346.308929,350.771729,-1.000000,0.000000,0.000000
482149307.587643,-0.020889,-0.008301,-1.071198,0.014336,0.016561,0.000936,0.999897,0.001173,-0.014334,-0.000936,0.999862,0.016560,0.014351,-0.016545,0.999760,0.014334,-0.016560,-0.999760,-0.051168,0.004719,-0.051952,-0.003953,-0.000999,-0.016435,346.308929,350.771729,-1.000000,0.000000,0.000000
482149307.597566,-0.001083,-0.005798,-1.080841,0.014328,0.016509,0.000926,0.999897,0.001163,-0.014325,-0.000926,0.999863,0.016509,0.014343,-0.016494,0.999761,0.014325,-0.016509,-0.999761,-0.043195,0.003524,-0.050898,-0.006493,-0.002035,-0.000439,346.308929,350.771729,-1.000000,0.000000,0.000000
482149307.608884,0.101654,-0.001602,-1.046768,0.014328,0.016509,0.000926,0.999897,0.001163,-0.014325,-0.000926,0.999863,0.016509,0.014343,-0.016494,0.999761,0.014325,-0.016509,-0.999761,-0.043195,0.003524,-0.050898,-0.006493,-0.002035,-0.000439,346.308929,350.771729,-1.000000,0.000000,0.000000
482149307.617487,0.030655,-0.012238,-1.062973,0.014283,0.016419,0.000907,0.999897,0.001142,-0.014281,-0.000907,0.999865,0.016418,0.014297,-0.016404,0.999763,0.014281,-0.016418,-0.999763,-0.035170,0.008117,-0.071434,-0.002793,-0.000854,-0.000420,346.308929,350.771729,-1.000000,0.000000,0.000000
482149307.627446,0.039581,-0.016312,-1.051147,0.014320,0.016452,0.000891,0.999897,0.001126,-0.014318,-0.000891,0.999864,0.016451,0.014334,-0.016436,0.999762,0.014318,-0.016451,-0.999762,-0.015401,0.010652,-0.081079,0.003380,0.006108,-0.001613,346.308929,350.771729,-1.000000,0.000000,0.000000
482149307.639081,0.039581,-0.016312,-1.051147,0.014320,0.016452,0.000891,0.999897,0.001126,-0.014318,-0.000891,0.999864,0.016451,0.014334,-0.016436,0.999762,0.014318,-0.016451,-0.999762,-0.015401,0.010652,-0.081079,0.003380,0.006108,-0.001613,346.308929,350.771729,-1.000000,0.000000,0.000000
482149307.647319,0.128708,-0.007202,-1.067154,0.014293,0.016506,0.000942,0.999897,0.001178,-0.014290,-0.000942,0.999863,0.016505,0.014308,-0.016490,0.999762,0.014290,-0.016505,-0.999762,0.087364,0.014903,-0.047007,0.000892,0.002678,0.004526,346.308929,350.771729,-1.000000,0.000000,0.000000
482149307.657320,0.097046,-0.007645,-1.074249,0.014296,0.016508,0.000926,0.999897,0.001162,-0.014294,-0.000926,0.999863,0.016508,0.014311,-0.016493,0.999762,0.014294,-0.016508,-0.999762,0.016361,0.004270,-0.063211,0.000927,0.000274,-0.006557,346.308929,350.771729,-1.000000,0.000000,0.000000
482149307.667924,0.033463,-0.007294,-1.056091,0.014393,0.016550,0.000900,0.999896,0.001138,-0.014390,-0.000900,0.999863,0.016549,0.014407,-0.016534,0.999759,0.014390,-0.016549,-0.999759,0.114318,0.009347,-0.067394,0.004617,0.006106,-0.002838,346.308929,350.771729,-1.000000,0.000000,0.000000
482149307.677542,-0.032837,-0.006134,-1.075195,0.014393,0.016550,0.000900,0.999896,0.001138,-0.014390,-0.000900,0.999863,0.016549,0.014407,-0.016534,0.999759,0.014390,-0.016549,-0.999759,0.114318,0.009347,-0.067394,0.004617,0.006106,-0.002838,346.308929,350.771729,-1.000000,0.000000,0.000000
482149307.687786,-0.121124,-0.007309,-1.061127,0.014424,0.016601,0.000920,0.999895,0.001159,-0.014422,-0.000920,0.999862,0.016600,0.014439,-0.016585,0.999758,0.014422,-0.016600,-0.999758,0.082624,0.008955,-0.074491,0.008284,0.002751,0.007022,346.308929,350.771729,-1.000000,0.000000,0.000000
482149307.699110,-0.027954,0.000641,-1.085922,0.014374,0.016632,0.001043,0.999896,0.001282,-0.014371,-0.001043,0.999861,0.016631,0.014390,-0.016614,0.999758,0.014371,-0.016631,-0.999758,-0.047208,0.010497,-0.075437,-0.004018,0.002580,-0.002883,346.308929,350.771729,-1.000000,0.000000,0.000000
482149307.707639,-0.061691,-0.009354,-1.047958,0.014374,0.016632,0.001043,0.999896,0.001282,-0.014371,-0.001043,0.999861,0.016631,0.014390,-0.016614,0.999758,0.014371,-0.016631,-0.999758,-0.047208,0.010497,-0.075437,-0.004018,0.002580,-0.002883,346.308929,350.771729,-1.000000,0.000000,0.000000
482149307.717558,-0.072479,-0.008301,-1.068619,0.014388,0.016652,0.001009,0.999896,0.001249,-0.014386,-0.001009,0.999861,0.016651,0.014405,-0.016635,0.999758,0.014386,-0.016651,-0.999758,-0.135510,0.009342,-0.061369,0.000911,0.000316,-0.001633,346.308929,350.771729,-1.000000,0.000000,0.000000
482149307.727729,-0.027023,-0.007080,-1.052612,0.014400,0.016604,0.001026,0.999896,0.001265,-0.014397,-0.001026,0.999862,0.016603,0.014416,-0.016587,0.999758,0.014397,-0.016603,-0.999758,-0.042351,0.017244,-0.086164,-0.001556,-0.000856,-0.001646,346.308929,350.771729,-1.000000,0.000000,0.000000
482149307.738433,-0.027023,-0.007080,-1.052612,0.014400,0.016604,0.001026,0.999896,0.001265,-0.014397,-0.001026,0.999862,0.016603,0.014416,-0.016587,0.999758,0.014397,-0.016603,-0.999758,-0.042351,0.017244,-0.086164,-0.001556,-0.000856,-0.001646,346.308929,350.771729,-1.000000,0.000000,0.000000
482149307.747359,0.058365,-0.007874,-1.071594,0.014358,0.016607,0.001058,0.999896,0.001296,-0.014355,-0.001057,0.999862,0.016606,0.014375,-0.016589,0.999759,0.014355,-0.016606,-0.999759,-0.076047,0.007253,-0.048199,0.002127,-0.006562,0.003286,346.308929,350.771729,-1.000000,0.000000,0.000000
482149307.757374,0.123886,-0.014999,-1.057419,0.014354,0.016660,0.000989,0.999896,0.001228,-0.014351,-0.000989,0.999861,0.016659,0.014370,-0.016643,0.999758,0.014351,-0.016659,-0.999758,-0.041375,0.009579,-0.052854,-0.000330,-0.001981,0.000819,346.308929,350.771729,-1.000000,0.000000,0.000000
482149307.767619,0.125565,-0.002151,-1.060318,0.014354,0.016660,0.000989,0.999896,0.001228,-0.014351,-0.000989,0.999861,0.016659,0.014370,-0.016643,0.999758,0.014351,-0.016659,-0.999758,-0.041375,0.009579,-0.052854,-0.000330,-0.001981,0.000819,346.308929,350.771729,-1.000000,0.000000,0.000000
482149307.777308,0.031403,-0.005234,-1.052170,0.014340,0.016651,0.001009,0.999896,0.001248,-0.014337,-0.001009,0.999861,0.016650,0.014356,-0.016634,0.999759,0.014337,-0.016650,-0.999759,0.044027,0.008777,-0.071836,-0.004038,-0.000832,0.003267,346.308929,350.771729,-1.000000,0.000000,0.000000
482149307.787646,0.141769,-0.015381,-1.063156,0.014307,0.016674,0.000983,0.999897,0.001222,-0.014305,-0.000983,0.999861,0.016674,0.014323,-0.016658,0.999759,0.014305,-0.016674,-0.999759,0.111260,0.014522,-0.060559,0.004617,-0.005452,-0.004088,346.308929,350.771729,-1.000000,0.000000,0.000000
482149307.798567,0.072266,-0.010071,-1.064636,0.014307,0.016674,0.000983,0.999897,0.001222,-0.014305,-0.000983,0.999861,0.016674,0.014323,-0.016658,0.999759,0.014305,-0.016674,-0.999759,0.111260,0.014522,-0.060559,0.004617,-0.005452,-0.004088,346.308929,350.771729,-1.000000,0.000000,0.000000
482149307.807525,-0.001129,-0.008636,-1.064194,0.014282,0.016695,0.000979,0.999897,0.001217,-0.014280,-0.000979,0.999860,0.016694,0.014298,-0.016679,0.999759,0.014280,-0.016694,-0.999759,0.111285,0.014543,-0.060559,0.000899,-0.001962,0.002056,346.308929,350.771729,-1.000000,0.000000,0.000000
482149307.817806,-0.051529,-0.014648,-1.066513,0.014300,0.016773,0.000994,0.999897,0.001234,-0.014298,-0.000994,0.999859,0.016772,0.014317,-0.016756,0.999757,0.014298,-0.016772,-0.999757,0.127471,0.001391,-0.063399,0.000887,-0.000776,0.005751,346.308929,350.771729,-1.000000,0.000000,0.000000
482149307.829153,-0.051529,-0.014648,-1.066513,0.014300,0.016773,0.000994,0.999897,0.001234,-0.014298,-0.000994,0.999859,0.016772,0.014317,-0.016756,0.999757,0.014298,-0.016772,-0.999757,0.127471,0.001391,-0.063399,0.000887,-0.000776,0.005751,346.308929,350.771729,-1.000000,0.000000,0.000000
482149307.836867,-0.158813,-0.009506,-1.054550,0.014275,0.016764,0.001044,0.999897,0.001283,-0.014273,-0.001044,0.999859,0.016763,0.014292,-0.016747,0.999758,0.014273,-0.016763,-0.999758,0.057993,0.006693,-0.064879,-0.000339,-0.001960,0.003281,346.308929,350.771729,-1.000000,0.000000,0.000000
482149307.847522,-0.030869,-0.013931,-1.047745,0.014276,0.016843,0.001113,0.999897,0.001354,-0.014273,-0.001113,0.999858,0.016842,0.014294,-0.016824,0.999756,0.014273,-0.016842,-0.999756,-0.065802,0.002193,-0.066757,-0.001576,0.000351,0.004511,346.308929,350.771729,-1.000000,0.000000,0.000000
482149307.857587,-0.014099,-0.008316,-1.053513,0.014267,0.016792,0.001164,0.999897,0.001403,-0.014264,-0.001164,0.999858,0.016791,0.014286,-0.016773,0.999757,0.014264,-0.016791,-0.999757,-0.173078,0.007285,-0.054793,-0.008967,0.000277,0.002015,346.308929,350.771729,-1.000000,0.000000,0.000000
482149307.867610,-0.051468,-0.017624,-1.065536,0.014267,0.016792,0.001164,0.999897,0.001403,-0.014264,-0.001164,0.999858,0.016791,0.014286,-0.016773,0.999757,0.014264,-0.016791,-0.999757,-0.173078,0.007285,-0.054793,-0.008967,0.000277,0.002015,346.308929,350.771729,-1.000000,0.000000,0.000000
482149307.877633,-0.020966,-0.008224,-1.060410,0.014301,0.016780,0.001192,0.999897,0.001432,-0.014298,-0.001192,0.999858,0.016779,0.014320,-0.016760,0.999757,0.014298,-0.016779,-0.999757,-0.045167,0.002848,-0.047988,-0.000342,0.000360,0.004516,346.308929,350.771729,-1.000000,0.000000,0.000000
482149307.887487,0.055298,-0.007736,-1.058868,0.014316,0.016812,0.001164,0.999897,0.001404,-0.014313,-0.001164,0.999858,0.016812,0.014335,-0.016793,0.999756,0.014313,-0.016812,-0.999756,-0.028412,0.008496,-0.053756,0.005865,0.001454,-0.007764,346.308929,350.771729,-1.000000,0.000000,0.000000
482149307.897658,0.095016,-0.010468,-1.057617,0.014316,0.016812,0.001164,0.999897,0.001404,-0.014313,-0.001164,0.999858,0.016812,0.014335,-0.016793,0.999756,0.014313,-0.016812,-0.999756,-0.028412,0.008496,-0.053756,0.005865,0.001454,-0.007764,346.308929,350.771729,-1.000000,0.000000,0.000000
482149307.907407,0.080109,-0.004364,-1.075333,0.014311,0.016878,0.001203,0.999897,0.001445,-0.014308,-0.001203,0.999857,0.016878,0.014331,-0.016859,0.999755,0.014308,-0.016878,-0.999755,-0.035274,0.008653,-0.060654,0.003370,-0.000800,0.000838,346.308929,350.771729,-1.000000,0.000000,0.000000
482149307.917614,0.047272,-0.009415,-1.038361,0.014314,0.016888,0.001247,0.999896,0.001489,-0.014311,-0.001247,0.999857,0.016887,0.014334,-0.016867,0.999755,0.014311,-0.016887,-0.999755,0.040987,0.009151,-0.059113,-0.000346,-0.000784,0.005745,346.308929,350.771729,-1.000000,0.000000,0.000000
482149307.928019,0.047272,-0.009415,-1.038361,0.014314,0.016888,0.001247,0.999896,0.001489,-0.014311,-0.001247,0.999857,0.016887,0.014334,-0.016867,0.999755,0.014311,-0.016887,-0.999755,0.040987,0.009151,-0.059113,-0.000346,-0.000784,0.005745,346.308929,350.771729,-1.000000,0.000000,0.000000
482149307.937117,0.107971,-0.003021,-1.091797,0.014286,0.016924,0.001311,0.999897,0.001552,-0.014284,-0.001310,0.999856,0.016923,0.014308,-0.016903,0.999755,0.014284,-0.016923,-0.999755,0.065825,0.012559,-0.075578,-0.002820,0.001528,0.008200,346.308929,350.771729,-1.000000,0.000000,0.000000
482149307.948523,0.025742,-0.011185,-1.069870,0.014284,0.016903,0.001301,0.999897,0.001542,-0.014281,-0.001301,0.999856,0.016902,0.014305,-0.016882,0.999755,0.014281,-0.016902,-0.999755,0.065828,0.012538,-0.075577,-0.001548,0.000278,-0.004107,346.308929,350.771729,-1.000000,0.000000,0.000000
482149307.960337,0.010895,-0.010910,-1.072922,0.014284,0.016903,0.001301,0.999897,0.001542,-0.014281,-0.001301,0.999856,0.016902,0.014305,-0.016882,0.999755,0.014281,-0.016902,-0.999755,0.065828,0.012538,-0.075577,-0.001548,0.000278,-0.004107,346.308929,350.771729,-1.000000,0.000000,0.000000
482149307.967318,-0.093460,-0.005798,-1.053085,0.014358,0.017010,0.001286,0.999896,0.001530,-0.014356,-0.001286,0.999855,0.017009,0.014380,-0.016989,0.999752,0.014356,-0.017009,-0.999752,0.093616,0.013988,-0.092045,0.012019,0.000374,-0.004045,346.308929,350.771729,-1.000000,0.000000,0.000000
482149307.977654,-0.140732,-0.015900,-1.065201,0.014339,0.017019,0.001240,0.999896,0.001484,-0.014337,-0.001240,0.999854,0.017018,0.014360,-0.016998,0.999752,0.014337,-0.017018,-0.999752,0.011405,0.005833,-0.070118,0.003382,-0.000831,-0.002855,346.308929,350.771729,-1.000000,0.000000,0.000000
482149307.988422,-0.016739,-0.014404,-1.078995,0.014339,0.017019,0.001240,0.999896,0.001484,-0.014337,-0.001240,0.999854,0.017018,0.014360,-0.016998,0.999752,0.014337,-0.017018,-0.999752,0.011405,0.005833,-0.070118,0.003382,-0.000831,-0.002855,346.308929,350.771729,-1.000000,0.000000,0.000000
482149307.997622,-0.059723,-0.008423,-1.049911,0.014357,0.017024,0.001244,0.999896,0.001488,-0.014354,-0.001244,0.999854,0.017023,0.014377,-0.017004,0.999752,0.014354,-0.017023,-0.999752,-0.107814,0.011225,-0.053333,-0.004026,0.003756,-0.000420,346.308929,350.771729,-1.000000,0.000000,0.000000
482149308.007551,-0.071350,-0.013290,-1.071564,0.014376,0.017004,0.001294,0.999896,0.001538,-0.014374,-0.001294,0.999855,0.017003,0.014398,-0.016982,0.999752,0.014374,-0.017003,-0.999752,-0.155105,0.001103,-0.065449,-0.004030,0.000302,0.000806,346.308929,350.771729,-1.000000,0.000000,0.000000
482149308.018293,-0.042679,-0.010864,-1.067429,0.014400,0.017003,0.001250,0.999895,0.001495,-0.014397,-0.001250,0.999855,0.017002,0.014420,-0.016982,0.999752,0.014397,-0.017002,-0.999752,-0.031136,0.002598,-0.079243,-0.004015,-0.000895,-0.004120,346.308929,350.771729,-1.000000,0.000000,0.000000
482149308.028097,-0.042679,-0.010864,-1.067429,0.014400,0.017003,0.001250,0.999895,0.001495,-0.014397,-0.001250,0.999855,0.017002,0.014420,-0.016982,0.999752,0.014397,-0.017002,-0.999752,-0.031136,0.002598,-0.079243,-0.004015,-0.000895,-0.004120,346.308929,350.771729,-1.000000,0.000000,0.000000
482149308.038024,0.107956,-0.011719,-1.059479,0.014408,0.016952,0.001259,0.999895,0.001503,-0.014405,-0.001259,0.999856,0.016951,0.014429,-0.016931,0.999753,0.014405,-0.016951,-0.999753,-0.074128,0.008528,-0.050159,-0.004034,0.003777,0.002042,346.308929,350.771729,-1.000000,0.000000,0.000000
482149308.047274,0.142578,-0.006500,-1.066086,0.014482,0.016969,0.001263,0.999894,0.001508,-0.014479,-0.001263,0.999855,0.016968,0.014503,-0.016948,0.999751,0.014479,-0.016968,-0.999751,-0.057158,0.006104,-0.067677,0.009532,-0.000746,0.002097,346.308929,350.771729,-1.000000,0.000000,0.000000
482149308.057213,0.017807,-0.009094,-1.076797,0.014482,0.016969,0.001263,0.999894,0.001508,-0.014479,-0.001263,0.999855,0.016968,0.014503,-0.016948,0.999751,0.014479,-0.016968,-0.999751,-0.057158,0.006104,-0.067677,0.009532,-0.000746,0.002097,346.308929,350.771729,-1.000000,0.000000,0.000000
482149308.066667,0.051346,-0.005722,-1.067719,0.014485,0.017003,0.001324,0.999894,0.001570,-0.014482,-0.001324,0.999855,0.017002,0.014507,-0.016981,0.999751,0.014482,-0.017002,-0.999751,0.093474,0.005283,-0.059728,0.000883,0.000389,0.006983,346.308929,350.771729,-1.000000,0.000000,0.000000
482149308.078783,0.118744,-0.006012,-1.062317,0.014440,0.016955,0.001341,0.999894,0.001585,-0.014437,-0.001341,0.999855,0.016954,0.014462,-0.016933,0.999752,0.014437,-0.016954,-0.999752,0.003370,0.007860,-0.077045,-0.005260,-0.003181,-0.000437,346.308929,350.771729,-1.000000,0.000000,0.000000
482149308.087198,0.068222,-0.008011,-1.062683,0.014440,0.016955,0.001341,0.999894,0.001585,-0.014437,-0.001341,0.999855,0.016954,0.014462,-0.016933,0.999752,0.014437,-0.016954,-0.999752,0.003370,0.007860,-0.077045,-0.005260,-0.003181,-0.000437,346.308929,350.771729,-1.000000,0.000000,0.000000
482149308.097280,-0.024033,-0.008102,-1.048660,0.014437,0.016964,0.001391,0.999894,0.001635,-0.014435,-0.001390,0.999855,0.016963,0.014460,-0.016941,0.999752,0.014435,-0.016963,-0.999752,0.036911,0.011241,-0.067967,0.004575,0.002746,0.009466,346.308929,350.771729,-1.000000,0.000000,0.000000
482149308.108041,-0.146652,-0.015808,-1.069168,0.014489,0.017012,0.001382,0.999894,0.001629,-0.014486,-0.001382,0.999854,0.017011,0.014512,-0.016989,0.999750,0.014486,-0.017011,-0.999750,0.104258,0.010999,-0.062567,-0.008931,0.002493,-0.009062,346.308929,350.771729,-1.000000,0.000000,0.000000
482149308.119087,-0.057678,-0.004639,-1.069489,0.014489,0.017012,0.001382,0.999894,0.001629,-0.014486,-0.001382,0.999854,0.017011,0.014512,-0.016989,0.999750,0.014486,-0.017011,-0.999750,0.104258,0.010999,-0.062567,-0.008931,0.002493,-0.009062,346.308929,350.771729,-1.000000,0.000000,0.000000
482149308.127982,-0.057678,-0.004639,-1.069489,0.014492,0.017009,0.001420,0.999894,0.001667,-0.014489,-0.001420,0.999854,0.017008,0.014515,-0.016986,0.999750,0.014489,-0.017008,-0.999750,0.053733,0.008997,-0.062933,0.003362,0.000375,0.003301,346.308929,350.771729,-1.000000,0.000000,0.000000
482149308.137581,-0.007431,0.001480,-1.048523,0.014387,0.017080,0.001352,0.999895,0.001597,-0.014384,-0.001351,0.999853,0.017079,0.014409,-0.017057,0.999751,0.014384,-0.017079,-0.999751,-0.161036,0.001271,-0.069417,0.003385,-0.004306,-0.004092,346.308929,350.771729,-1.000000,0.000000,0.000000
482149308.148770,-0.036682,-0.015869,-1.058578,0.014387,0.017080,0.001352,0.999895,0.001597,-0.014384,-0.001351,0.999853,0.017079,0.014409,-0.017057,0.999751,0.014384,-0.017079,-0.999751,-0.161036,0.001271,-0.069417,0.003385,-0.004306,-0.004092,346.308929,350.771729,-1.000000,0.000000,0.000000
482149308.157374,-0.030807,-0.009125,-1.071274,0.014367,0.017083,0.001372,0.999896,0.001617,-0.014365,-0.001371,0.999853,0.017082,0.014390,-0.017060,0.999751,0.014365,-0.017082,-0.999751,-0.072043,0.012443,-0.069738,0.000895,-0.000797,0.003288,346.308929,350.771729,-1.000000,0.000000,0.000000
482149308.167952,-0.006073,-0.012436,-1.050491,0.014357,0.017130,0.001357,0.999896,0.001603,-0.014354,-0.001357,0.999852,0.017129,0.014380,-0.017108,0.999750,0.014354,-0.017129,-0.999750,-0.051037,0.001260,-0.058828,0.004611,0.000342,-0.001617,346.308929,350.771729,-1.000000,0.000000,0.000000
482149308.177870,0.047546,-0.009659,-1.074631,0.014357,0.017130,0.001357,0.999896,0.001603,-0.014354,-0.001357,0.999852,0.017129,0.014380,-0.017108,0.999750,0.014354,-0.017129,-0.999750,-0.051037,0.001260,-0.058828,0.004611,0.000342,-0.001617,346.308929,350.771729,-1.000000,0.000000,0.000000
482149308.187518,0.085037,-0.002457,-1.074341,0.014366,0.017193,0.001359,0.999896,0.001605,-0.014364,-0.001358,0.999851,0.017192,0.014389,-0.017171,0.999749,0.014364,-0.017192,-0.999749,-0.051046,0.001323,-0.058829,0.008307,0.001534,-0.000368,346.308929,350.771729,-1.000000,0.000000,0.000000
482149308.197535,0.039627,-0.013443,-1.066833,0.014367,0.017216,0.001320,0.999896,0.001568,-0.014365,-0.001320,0.999851,0.017215,0.014390,-0.017194,0.999749,0.014365,-0.017215,-0.999749,-0.020438,0.004779,-0.050743,0.004597,0.007312,0.003318,346.308929,350.771729,-1.000000,0.000000,0.000000
482149308.208480,0.078003,-0.001282,-1.067520,0.014404,0.017177,0.001317,0.999895,0.001564,-0.014401,-0.001317,0.999852,0.017176,0.014426,-0.017155,0.999749,0.014401,-0.017176,-0.999749,0.033145,0.007517,-0.074882,-0.006497,0.002593,0.000798,346.308929,350.771729,-1.000000,0.000000,0.000000
482149308.219411,0.078003,-0.001282,-1.067520,0.014404,0.017177,0.001317,0.999895,0.001564,-0.014401,-0.001317,0.999852,0.017176,0.014426,-0.017155,0.999749,0.014401,-0.017176,-0.999749,0.033145,0.007517,-0.074882,-0.006497,0.002593,0.000798,346.308929,350.771729,-1.000000,0.000000,0.000000
482149308.227351,0.103210,-0.023483,-1.050690,0.014421,0.017069,0.001340,0.999895,0.001586,-0.014418,-0.001340,0.999853,0.017068,0.014443,-0.017047,0.999750,0.014418,-0.017068,-0.999750,0.025209,0.003625,-0.067083,-0.001564,0.001474,0.000818,346.308929,350.771729,-1.000000,0.000000,0.000000
482149308.237586,0.032639,-0.011292,-1.065903,0.014441,0.017083,0.001282,0.999895,0.001529,-0.014439,-0.001282,0.999853,0.017082,0.014463,-0.017062,0.999750,0.014439,-0.017082,-0.999750,0.063564,0.015800,-0.067770,0.005842,0.004980,-0.000373,346.308929,350.771729,-1.000000,0.000000,0.000000
482149308.247547,0.044525,-0.015396,-1.051117,0.014441,0.017083,0.001282,0.999895,0.001529,-0.014439,-0.001282,0.999853,0.017082,0.014463,-0.017062,0.999750,0.014439,-0.017082,-0.999750,0.063564,0.015800,-0.067770,0.005842,0.004980,-0.000373,346.308929,350.771729,-1.000000,0.000000,0.000000
482149308.257319,-0.063553,-0.008469,-1.068558,0.014447,0.017101,0.001358,0.999894,0.001605,-0.014444,-0.001358,0.999853,0.017101,0.014470,-0.017079,0.999749,0.014444,-0.017101,-0.999749,0.088766,-0.006383,-0.050940,-0.004023,-0.003184,-0.001663,0.000000,0.000000,-1.000000,0.000000,0.000000
482149308.267680,-0.170624,-0.009354,-1.065414,0.014472,0.017098,0.001408,0.999894,0.001656,-0.014469,-0.001408,0.999853,0.017097,0.014496,-0.017075,0.999749,0.014469,-0.017097,-0.999749,0.018169,0.005806,-0.066154,-0.000388,0.003801,0.003342,0.000000,0.000000,-1.000000,0.000000,0.000000
482149308.279166,-0.058777,-0.005508,-1.054794,0.014472,0.017098,0.001408,0.999894,0.001656,-0.014469,-0.001408,0.999853,0.017097,0.014496,-0.017075,0.999749,0.014469,-0.017097,-0.999749,0.018169,0.005806,-0.066154,-0.000388,0.003801,0.003342,346.294647,350.757446,-1.000000,0.000000,0.000000
482149308.287553,-0.091293,-0.008911,-1.068756,0.014545,0.017152,0.001539,0.999893,0.001788,-0.014542,-0.001538,0.999852,0.017152,0.014571,-0.017127,0.999747,0.014542,-0.017152,-0.999747,-0.078095,0.008683,-0.068811,0.004541,0.002692,0.004594,346.294647,350.757446,-1.000000,0.000000,0.000000
482149308.298191,-0.047806,-0.008667,-1.053757,0.014536,0.017095,0.001596,0.999893,0.001844,-0.014533,-0.001595,0.999853,0.017095,0.014562,-0.017070,0.999748,0.014533,-0.017095,-0.999748,-0.185157,0.007741,-0.065666,-0.006564,-0.003150,0.005765,346.294647,350.757446,-1.000000,0.000000,0.000000
482149308.307453,-0.001190,-0.006668,-1.064178,0.014536,0.017095,0.001596,0.999893,0.001844,-0.014533,-0.001595,0.999853,0.017095,0.014562,-0.017070,0.999748,0.014533,-0.017095,-0.999748,-0.185157,0.007741,-0.065666,-0.006564,-0.003150,0.005765,346.294647,350.757446,-1.000000,0.000000,0.000000
482149308.317419,0.103104,-0.014648,-1.065384,0.014485,0.017149,0.001660,0.999893,0.001908,-0.014483,-0.001660,0.999852,0.017148,0.014513,-0.017122,0.999748,0.014483,-0.017148,-0.999748,-0.105776,0.008237,-0.069008,0.003307,-0.003090,0.004579,346.294647,350.757446,-1.000000,0.000000,0.000000
482149308.327615,0.142365,0.003418,-1.070984,0.014421,0.017169,0.001656,0.999894,0.001904,-0.014418,-0.001656,0.999851,0.017168,0.014449,-0.017142,0.999749,0.014418,-0.017168,-0.999749,-0.062224,0.008501,-0.054008,0.003313,-0.007730,0.002110,346.294647,350.757446,-1.000000,0.000000,0.000000
482149308.340594,0.043564,-0.010559,-1.070740,0.014372,0.017281,0.001612,0.999895,0.001860,-0.014370,-0.001612,0.999849,0.017280,0.014400,-0.017255,0.999747,0.014370,-0.017280,-0.999747,-0.015560,0.010612,-0.064431,0.000880,-0.004367,-0.007744,346.289642,350.752441,-1.000000,0.000000,0.000000
482149308.347249,0.043564,-0.010559,-1.070740,0.014372,0.017281,0.001612,0.999895,0.001860,-0.014370,-0.001612,0.999849,0.017280,0.014400,-0.017255,0.999747,0.014370,-0.017280,-0.999747,-0.015560,0.010612,-0.064431,0.000880,-0.004367,-0.007744,346.289642,350.752441,-1.000000,0.000000,0.000000
482149308.356995,0.102783,-0.004654,-1.053619,0.014336,0.017301,0.001585,0.999896,0.001832,-0.014334,-0.001584,0.999849,0.017300,0.014363,-0.017276,0.999748,0.014334,-0.017300,-0.999748,0.088770,0.002652,-0.065636,-0.000361,-0.002046,-0.005284,346.289642,350.752441,-1.000000,0.000000,0.000000
482149308.368132,0.056259,-0.001907,-1.073547,0.014297,0.017270,0.001626,0.999896,0.001872,-0.014294,-0.001626,0.999850,0.017269,0.014324,-0.017244,0.999749,0.014294,-0.017269,-0.999749,0.029270,0.006710,-0.070991,-0.006544,-0.000893,-0.000386,346.289642,350.752441,-1.000000,0.000000,0.000000
482149308.378259,0.013580,-0.004913,-1.056244,0.014297,0.017270,0.001626,0.999896,0.001872,-0.014294,-0.001626,0.999850,0.017269,0.014324,-0.017244,0.999749,0.014294,-0.017269,-0.999749,0.029270,0.006710,-0.070991,-0.006544,-0.000893,-0.000386,346.289642,350.752441,-1.000000,0.000000,0.000000
482149308.387541,-0.021805,-0.011322,-1.076096,0.014311,0.017254,0.001611,0.999896,0.001857,-0.014309,-0.001610,0.999850,0.017253,0.014338,-0.017229,0.999749,0.014309,-0.017253,-0.999749,0.088475,0.012600,-0.053871,0.002086,0.001489,0.000887,346.283875,350.746674,-1.000000,0.000000,0.000000
482149308.397897,-0.122055,-0.007355,-1.071930,0.014288,0.017242,0.001688,0.999896,0.001934,-0.014286,-0.001687,0.999850,0.017241,0.014317,-0.017215,0.999749,0.014286,-0.017241,-0.999749,-0.000705,0.012328,-0.056495,-0.002851,0.001464,0.002096,346.283875,350.746674,-1.000000,0.000000,0.000000
482149308.407734,-0.048630,-0.014618,-1.052765,0.014288,0.017242,0.001688,0.999896,0.001934,-0.014286,-0.001687,0.999850,0.017241,0.014317,-0.017215,0.999749,0.014286,-0.017241,-0.999749,-0.000705,0.012328,-0.056495,-0.002851,0.001464,0.002096,346.283875,350.746674,-1.000000,0.000000,0.000000
482149308.417764,-0.043747,-0.004959,-1.079178,0.014253,0.017292,0.001660,0.999897,0.001906,-0.014250,-0.001659,0.999849,0.017291,0.014281,-0.017266,0.999749,0.014250,-0.017291,-0.999749,-0.000670,0.012378,-0.056495,0.002088,-0.006605,-0.000356,346.283875,350.746674,-1.000000,0.000000,0.000000
482149308.428625,-0.078430,-0.015945,-1.040253,0.014229,0.017219,0.001737,0.999897,0.001982,-0.014227,-0.001737,0.999850,0.017219,0.014259,-0.017192,0.999751,0.014227,-0.017219,-0.999751,-0.136282,0.009864,-0.072179,-0.004097,-0.001978,0.005778,346.283875,350.746674,-1.000000,0.000000,0.000000
482149308.437263,-0.078430,-0.015945,-1.040253,0.014229,0.017219,0.001737,0.999897,0.001982,-0.014227,-0.001737,0.999850,0.017219,0.014259,-0.017192,0.999751,0.014227,-0.017219,-0.999751,-0.136282,0.009864,-0.072179,-0.004097,-0.001978,0.005778,346.283600,350.746399,-1.000000,0.000000,0.000000
482149308.447340,-0.034927,-0.007919,-1.052673,0.014249,0.017162,0.001758,0.999897,0.002003,-0.014246,-0.001758,0.999851,0.017161,0.014278,-0.017134,0.999751,0.014246,-0.017161,-0.999751,-0.062876,0.002543,-0.053014,-0.000376,0.003770,-0.000351,346.283600,350.746399,-1.000000,0.000000,0.000000
482149308.457593,0.070312,-0.010071,-1.069550,0.014265,0.017143,0.001835,0.999896,0.002080,-0.014263,-0.001835,0.999851,0.017143,0.014296,-0.017115,0.999751,0.014263,-0.017143,-0.999751,-0.092693,0.001197,-0.040501,-0.005307,-0.004359,-0.001617,346.283600,350.746399,-1.000000,0.000000,0.000000
482149308.467477,0.120789,-0.008041,-1.065247,0.014265,0.017143,0.001835,0.999896,0.002080,-0.014263,-0.001835,0.999851,0.017143,0.014296,-0.017115,0.999751,0.014263,-0.017143,-0.999751,-0.092693,0.001197,-0.040501,-0.005307,-0.004359,-0.001617,346.283600,350.746399,-1.000000,0.000000,0.000000
482149308.477314,0.128571,0.002609,-1.081848,0.014285,0.017115,0.001802,0.999896,0.002047,-0.014283,-0.001802,0.999852,0.017115,0.014315,-0.017087,0.999752,0.014283,-0.017115,-0.999752,-0.049210,0.009195,-0.052922,-0.002831,0.002566,-0.004057,346.283600,350.746399,-1.000000,0.000000,0.000000
482149308.487524,0.056396,-0.013657,-1.052994,0.014251,0.017115,0.001873,0.999896,0.002117,-0.014249,-0.001873,0.999852,0.017114,0.014283,-0.017086,0.999752,0.014249,-0.017114,-0.999752,0.106540,0.009073,-0.065495,-0.005318,-0.000863,0.002081,346.283600,350.746399,-1.000000,0.000000,0.000000
482149308.498935,0.083847,-0.000320,-1.054733,0.014251,0.017115,0.001873,0.999896,0.002117,-0.014249,-0.001873,0.999852,0.017114,0.014283,-0.017086,0.999752,0.014249,-0.017114,-0.999752,0.106540,0.009073,-0.065495,-0.005318,-0.000863,0.002081,346.284485,350.747284,-1.000000,0.000000,0.000000
482149308.507525,0.127731,-0.013016,-1.048569,0.014265,0.017106,0.001984,0.999896,0.002227,-0.014262,-0.001983,0.999852,0.017106,0.014298,-0.017075,0.999752,0.014262,-0.017106,-0.999752,0.106527,0.009064,-0.065495,0.002042,0.002758,0.014430,346.284485,350.747284,-1.000000,0.000000,0.000000
482149308.517592,0.063461,-0.014877,-1.064697,0.014280,0.017028,0.002085,0.999895,0.002328,-0.014278,-0.002085,0.999853,0.017027,0.014315,-0.016996,0.999753,0.014278,-0.017027,-0.999753,0.042119,0.003371,-0.053241,-0.010275,0.001474,0.009449,346.284485,350.747284,-1.000000,0.000000,0.000000
482149308.528708,-0.009003,-0.014359,-1.051498,0.014280,0.017028,0.002085,0.999895,0.002328,-0.014278,-0.002085,0.999853,0.017027,0.014315,-0.016996,0.999753,0.014278,-0.017027,-0.999753,0.042119,0.003371,-0.053241,-0.010275,0.001474,0.009449,346.284485,350.747284,-1.000000,0.000000,0.000000
482149308.537609,-0.159729,-0.009552,-1.063385,0.014260,0.017043,0.002153,0.999895,0.002396,-0.014258,-0.002153,0.999852,0.017042,0.014297,-0.017010,0.999753,0.014258,-0.017042,-0.999753,0.069589,0.016722,-0.054980,0.004536,-0.003071,0.005815,346.284485,350.747284,-1.000000,0.000000,0.000000
482149308.548010,-0.159729,-0.009552,-1.063385,0.014194,0.017083,0.002092,0.999897,0.002334,-0.014192,-0.002092,0.999852,0.017082,0.014230,-0.017051,0.999753,0.014192,-0.017082,-0.999753,0.049270,0.002205,-0.064944,0.009513,-0.000842,-0.007700,346.284363,350.747162,-1.000000,0.000000,0.000000
482149308.559006,-0.063629,-0.006439,-1.064636,0.014194,0.017083,0.002092,0.999897,0.002334,-0.014192,-0.002092,0.999852,0.017082,0.014230,-0.017051,0.999753,0.014192,-0.017082,-0.999753,0.049270,0.002205,-0.064944,0.009513,-0.000842,-0.007700,346.284363,350.747162,-1.000000,0.000000,0.000000
482149308.566866,-0.060669,-0.007462,-1.059723,0.014192,0.017080,0.002113,0.999897,0.002355,-0.014189,-0.002112,0.999852,0.017079,0.014227,-0.017047,0.999753,0.014189,-0.017079,-0.999753,-0.023192,0.002720,-0.051745,0.002074,-0.001945,0.004575,346.284363,350.747162,-1.000000,0.000000,0.000000
482149308.584910,-0.052841,-0.008484,-1.041046,0.014231,0.017060,0.002118,0.999896,0.002360,-0.014229,-0.002118,0.999852,0.017060,0.014267,-0.017028,0.999753,0.014229,-0.017060,-0.999753,-0.077858,0.010620,-0.064883,-0.006543,0.001417,-0.000383,346.284363,350.747162,-1.000000,0.000000,0.000000
482149308.587592,-0.034729,-0.012009,-1.068359,0.014251,0.017057,0.002132,0.999896,0.002375,-0.014248,-0.002132,0.999852,0.017056,0.014287,-0.017024,0.999753,0.014248,-0.017056,-0.999753,-0.077877,0.010617,-0.064883,0.002082,0.000344,0.002116,346.284363,350.747162,-1.000000,0.000000,0.000000
482149308.597824,0.021713,-0.008148,-1.071869,0.014251,0.017057,0.002132,0.999896,0.002375,-0.014248,-0.002132,0.999852,0.017056,0.014287,-0.017024,0.999753,0.014248,-0.017056,-0.999753,-0.077877,0.010617,-0.064883,0.002082,0.000344,0.002116,346.283447,350.746246,-1.000000,0.000000,0.000000
482149308.609431,0.093277,-0.019394,-1.060562,0.014208,0.017175,0.002070,0.999896,0.002314,-0.014205,-0.002070,0.999850,0.017174,0.014243,-0.017143,0.999752,0.014205,-0.017174,-0.999752,-0.067046,0.008690,-0.041295,0.009501,-0.001965,-0.004009,346.283447,350.746246,-1.000000,0.000000,0.000000
482149308.617160,0.104675,0.003159,-1.068329,0.014182,0.017147,0.002067,0.999897,0.002310,-0.014180,-0.002067,0.999851,0.017146,0.014217,-0.017115,0.999752,0.014180,-0.017146,-0.999752,-0.048909,0.005138,-0.068607,-0.002853,-0.007775,0.002081,346.283447,350.746246,-1.000000,0.000000,0.000000
482149308.627804,0.046402,-0.008530,-1.058945,0.014182,0.017147,0.002067,0.999897,0.002310,-0.014180,-0.002067,0.999851,0.017146,0.014217,-0.017115,0.999752,0.014180,-0.017146,-0.999752,-0.048909,0.005138,-0.068607,-0.002853,-0.007775,0.002081,346.283447,350.746246,-1.000000,0.000000,0.000000
482149308.637586,0.114731,-0.004929,-1.061386,0.014144,0.017188,0.002060,0.999897,0.002303,-0.014141,-0.002060,0.999850,0.017187,0.014179,-0.017156,0.999752,0.014141,-0.017187,-0.999752,0.079136,-0.002207,-0.060810,0.000856,-0.000840,-0.000353,346.283447,350.746246,-1.000000,0.000000,0.000000
482149308.647678,0.092087,-0.009476,-1.067444,0.014152,0.017136,0.002045,0.999897,0.002287,-0.014150,-0.002045,0.999851,0.017135,0.014187,-0.017104,0.999753,0.014150,-0.017135,-0.999753,0.090525,0.020294,-0.068576,-0.006543,0.000261,-0.000385,346.279877,350.742676,-1.000000,0.000000,0.000000
482149308.657981,0.092087,-0.009476,-1.067444,0.014152,0.017136,0.002045,0.999897,0.002287,-0.014150,-0.002045,0.999851,0.017135,0.014187,-0.017104,0.999753,0.014150,-0.017135,-0.999753,0.090525,0.020294,-0.068576,-0.006543,0.000261,-0.000385,346.279877,350.742676,-1.000000,0.000000,0.000000
482149308.666559,0.026596,-0.007233,-1.067902,0.014175,0.017208,0.002157,0.999897,0.002401,-0.014172,-0.002157,0.999850,0.017207,0.014211,-0.017175,0.999752,0.014172,-0.017207,-0.999752,0.100559,0.012278,-0.061635,0.009467,0.006212,0.007083,346.279877,350.742676,-1.000000,0.000000,0.000000
482149308.676842,-0.040939,-0.005814,-1.051712,0.014166,0.017228,0.002195,0.999897,0.002439,-0.014164,-0.002195,0.999849,0.017228,0.014204,-0.017195,0.999751,0.014164,-0.017228,-0.999751,0.100567,0.012299,-0.061635,0.002073,-0.001945,0.004574,346.279877,350.742676,-1.000000,0.000000,0.000000
482149308.689947,-0.132996,-0.003265,-1.080811,0.014166,0.017228,0.002195,0.999897,0.002439,-0.014164,-0.002195,0.999849,0.017228,0.014204,-0.017195,0.999751,0.014164,-0.017228,-0.999751,0.100567,0.012299,-0.061635,0.002073,-0.001945,0.004574,346.279877,350.742676,-1.000000,0.000000,0.000000
482149308.697469,-0.075470,-0.011139,-1.056900,0.014150,0.017288,0.002236,0.999897,0.002480,-0.014147,-0.002235,0.999848,0.017287,0.014188,-0.017253,0.999750,0.014147,-0.017287,-0.999750,0.012449,0.010054,-0.068151,0.006999,0.000420,0.007063,346.277039,350.739838,-1.000000,0.000000,0.000000
482149308.707371,-0.037872,-0.002090,-1.076187,0.014119,0.017309,0.002298,0.999897,0.002542,-0.014116,-0.002298,0.999848,0.017308,0.014158,-0.017273,0.999751,0.014116,-0.017308,-0.999751,-0.055056,0.011494,-0.051961,0.000827,-0.004232,0.008258,346.277039,350.739838,-1.000000,0.000000,0.000000
482149308.718297,-0.085403,-0.010925,-1.053040,0.014091,0.017326,0.002375,0.999897,0.002618,-0.014088,-0.002374,0.999847,0.017325,0.014131,-0.017290,0.999751,0.014088,-0.017325,-0.999751,-0.089558,0.006186,-0.057149,-0.004098,-0.003133,0.005775,346.277039,350.739838,-1.000000,0.000000,0.000000
482149308.727631,-0.081390,-0.012985,-1.053009,0.014091,0.017326,0.002375,0.999897,0.002618,-0.014088,-0.002374,0.999847,0.017325,0.014131,-0.017290,0.999751,0.014088,-0.017325,-0.999751,-0.089558,0.006186,-0.057149,-0.004098,-0.003133,0.005775,346.277039,350.739838,-1.000000,0.000000,0.000000
482149308.737562,-0.031799,-0.011047,-1.064407,0.014083,0.017346,0.002377,0.999897,0.002621,-0.014080,-0.002377,0.999847,0.017345,0.014123,-0.017310,0.999750,0.014080,-0.017345,-0.999750,-0.051952,0.015255,-0.076437,0.002101,-0.002018,-0.004043,346.277039,350.739838,-1.000000,0.000000,0.000000
482149308.747496,0.101151,-0.010727,-1.081100,0.014089,0.017399,0.002399,0.999897,0.002644,-0.014086,-0.002399,0.999846,0.017398,0.014130,-0.017363,0.999749,0.014086,-0.017398,-0.999749,-0.095477,0.004413,-0.053260,0.003311,-0.000792,0.003351,346.277039,350.739838,-1.000000,0.000000,0.000000
482149308.757252,0.141418,-0.001480,-1.061188,0.014089,0.017399,0.002399,0.999897,0.002644,-0.014086,-0.002399,0.999846,0.017398,0.014130,-0.017363,0.999749,0.014086,-0.017398,-0.999749,-0.095477,0.004413,-0.053260,0.003311,-0.000792,0.003351,346.272278,350.735077,-1.000000,0.000000,0.000000
482149308.767806,0.045425,-0.005615,-1.070709,0.014114,0.017396,0.002444,0.999897,0.002689,-0.014111,-0.002444,0.999846,0.017395,0.014156,-0.017359,0.999749,0.014111,-0.017395,-0.999749,-0.045911,0.006348,-0.064658,0.002090,0.002632,-0.000343,346.272278,350.735077,-1.000000,0.000000,0.000000
482149308.777604,0.068237,-0.008026,-1.064651,0.014064,0.017383,0.002467,0.999897,0.002711,-0.014061,-0.002467,0.999846,0.017382,0.014106,-0.017346,0.999750,0.014061,-0.017382,-0.999750,0.087090,0.006655,-0.081350,-0.004074,-0.004351,-0.001613,346.272278,350.735077,-1.000000,0.000000,0.000000
482149308.786958,0.068237,-0.008026,-1.064651,0.014064,0.017383,0.002467,0.999897,0.002711,-0.014061,-0.002467,0.999846,0.017382,0.014106,-0.017346,0.999750,0.014061,-0.017382,-0.999750,0.087090,0.006655,-0.081350,-0.004074,-0.004351,-0.001613,346.272278,350.735077,-1.000000,0.000000,0.000000
482149308.798995,0.050446,-0.009644,-1.065765,0.014027,0.017403,0.002487,0.999898,0.002731,-0.014025,-0.002487,0.999845,0.017403,0.014070,-0.017366,0.999750,0.014025,-0.017403,-0.999750,0.127394,0.015922,-0.061438,0.003318,-0.004277,0.000883,346.272278,350.735077,-1.000000,0.000000,0.000000
482149308.807480,0.050446,-0.009644,-1.065765,0.014011,0.017354,0.002475,0.999898,0.002718,-0.014008,-0.002474,0.999846,0.017353,0.014053,-0.017317,0.999751,0.014008,-0.017353,-0.999751,0.054229,0.009327,-0.064900,0.002110,-0.000884,-0.006504,346.265961,350.728760,-1.000000,0.000000,0.000000
482149308.817844,0.000900,-0.012619,-1.057312,0.014011,0.017354,0.002475,0.999898,0.002718,-0.014008,-0.002474,0.999846,0.017353,0.014053,-0.017317,0.999751,0.014008,-0.017353,-0.999751,0.054229,0.009327,-0.064900,0.002110,-0.000884,-0.006504,346.265961,350.728760,-1.000000,0.000000,0.000000
482149308.827159,-0.073502,-0.007278,-1.068634,0.013992,0.017368,0.002441,0.999899,0.002684,-0.013989,-0.002441,0.999846,0.017367,0.014033,-0.017331,0.999751,0.013989,-0.017367,-0.999751,0.103763,0.010424,-0.059636,-0.000365,-0.002036,-0.004055,346.265961,350.728760,-1.000000,0.000000,0.000000
482149308.837647,-0.032791,-0.009094,-1.072266,0.013986,0.017313,0.002453,0.999899,0.002695,-0.013983,-0.002452,0.999847,0.017312,0.014028,-0.017276,0.999752,0.013983,-0.017312,-0.999752,-0.013083,0.004693,-0.057560,-0.006551,0.003747,0.002082,346.265961,350.728760,-1.000000,0.000000,0.000000
482149308.849136,-0.010025,-0.008484,-1.066208,0.013950,0.017339,0.002455,0.999899,0.002696,-0.013947,-0.002455,0.999847,0.017338,0.013992,-0.017302,0.999752,0.013947,-0.017338,-0.999752,-0.087449,0.010060,-0.068882,0.003314,-0.005421,0.002112,346.265961,350.728760,-1.000000,0.000000,0.000000
482149308.857468,-0.052521,-0.015579,-1.062607,0.013950,0.017339,0.002455,0.999899,0.002696,-0.013947,-0.002455,0.999847,0.017338,0.013992,-0.017302,0.999752,0.013947,-0.017338,-0.999752,-0.087449,0.010060,-0.068882,0.003314,-0.005421,0.002112,346.264130,350.726929,-1.000000,0.000000,0.000000
482149308.867619,-0.050781,-0.003754,-1.068451,0.013988,0.017273,0.002550,0.999898,0.002792,-0.013986,-0.002550,0.999848,0.017272,0.014032,-0.017234,0.999753,0.013986,-0.017272,-0.999753,-0.046777,0.008178,-0.072513,0.000864,0.000293,-0.002814,346.264130,350.726929,-1.000000,0.000000,0.000000
482149308.878052,-0.015137,-0.003403,-1.060349,0.013952,0.017263,0.002541,0.999899,0.002782,-0.013949,-0.002541,0.999848,0.017262,0.013995,-0.017225,0.999754,0.013949,-0.017262,-0.999754,-0.023974,0.008778,-0.066454,-0.000371,-0.007799,-0.002833,346.264130,350.726929,-1.000000,0.000000,0.000000
482149308.888155,0.079010,-0.003250,-1.061646,0.013952,0.017263,0.002541,0.999899,0.002782,-0.013949,-0.002541,0.999848,0.017262,0.013995,-0.017225,0.999754,0.013949,-0.017262,-0.999754,-0.023974,0.008778,-0.066454,-0.000371,-0.007799,-0.002833,346.264130,350.726929,-1.000000,0.000000,0.000000
482149308.899416,0.112885,-0.007919,-1.069229,0.013919,0.017316,0.002545,0.999899,0.002786,-0.013916,-0.002545,0.999847,0.017315,0.013963,-0.017278,0.999753,0.013916,-0.017315,-0.999753,-0.064698,0.013561,-0.068698,0.003320,0.003806,0.000896,346.264130,350.726929,-1.000000,0.000000,0.000000
482149308.907331,0.112885,-0.007919,-1.069229,0.013927,0.017360,0.002601,0.999899,0.002843,-0.013925,-0.002601,0.999846,0.017360,0.013972,-0.017322,0.999752,0.013925,-0.017360,-0.999752,-0.029062,0.013957,-0.060596,0.004532,0.000403,0.007051,346.264130,350.726929,-1.000000,0.000000,0.000000
482149308.917692,0.042618,-0.016403,-1.057007,0.013927,0.017360,0.002601,0.999899,0.002843,-0.013925,-0.002601,0.999846,0.017360,0.013972,-0.017322,0.999752,0.013925,-0.017360,-0.999752,-0.029062,0.013957,-0.060596,0.004532,0.000403,0.007051,346.264984,350.727783,-1.000000,0.000000,0.000000
482149308.927194,0.093918,-0.004547,-1.063492,0.013826,0.017324,0.002708,0.999900,0.002948,-0.013823,-0.002708,0.999846,0.017323,0.013872,-0.017284,0.999754,0.013823,-0.017323,-0.999754,0.065187,0.014073,-0.061891,-0.005324,-0.007782,0.003300,346.264984,350.727783,-1.000000,0.000000,0.000000
482149308.937652,0.103989,-0.011642,-1.059509,0.013784,0.017380,0.002698,0.999901,0.002938,-0.013782,-0.002698,0.999845,0.017380,0.013831,-0.017341,0.999754,0.013782,-0.017380,-0.999754,0.099103,0.009460,-0.069475,0.005789,-0.001961,-0.000333,346.264984,350.727783,-1.000000,0.000000,0.000000
482149308.947611,0.044525,-0.010559,-1.066803,0.013784,0.017380,0.002698,0.999901,0.002938,-0.013782,-0.002698,0.999845,0.017380,0.013831,-0.017341,0.999754,0.013782,-0.017380,-0.999754,0.099103,0.009460,-0.069475,0.005789,-0.001961,-0.000333,346.264984,350.727783,-1.000000,0.000000,0.000000
482149308.957580,-0.051849,-0.005615,-1.052780,0.013808,0.017420,0.002637,0.999901,0.002878,-0.013805,-0.002637,0.999845,0.017420,0.013853,-0.017381,0.999753,0.013805,-0.017420,-0.999753,0.080112,0.012872,-0.063739,0.004537,0.003857,0.005825,346.268341,350.731140,-1.000000,0.000000,0.000000
482149308.967661,-0.130127,0.001648,-1.080795,0.013879,0.017422,0.002592,0.999900,0.002834,-0.013876,-0.002592,0.999845,0.017421,0.013923,-0.017384,0.999752,0.013876,-0.017421,-0.999752,0.090112,0.005779,-0.059757,-0.002813,0.010607,-0.008970,346.268341,350.731140,-1.000000,0.000000,0.000000
482149308.977648,-0.153976,-0.007523,-1.042755,0.013879,0.017422,0.002592,0.999900,0.002834,-0.013876,-0.002592,0.999845,0.017421,0.013923,-0.017384,0.999752,0.013876,-0.017421,-0.999752,0.090112,0.005779,-0.059757,-0.002813,0.010607,-0.008970,346.268341,350.731140,-1.000000,0.000000,0.000000
482149308.987386,-0.041763,-0.002090,-1.087997,0.013952,0.017409,0.002615,0.999899,0.002858,-0.013949,-0.002615,0.999845,0.017408,0.013997,-0.017370,0.999751,0.013949,-0.017408,-0.999751,-0.065799,0.011793,-0.053029,-0.002846,0.004917,0.000869,346.268341,350.731140,-1.000000,0.000000,0.000000
482149308.997657,-0.047562,-0.007919,-1.089020,0.013922,0.017471,0.002605,0.999899,0.002848,-0.013919,-0.002605,0.999844,0.017470,0.013967,-0.017432,0.999750,0.013919,-0.017470,-0.999750,-0.144046,0.019118,-0.081045,0.007025,-0.006582,-0.001566,346.268341,350.731140,-1.000000,0.000000,0.000000
482149309.009773,-0.023895,-0.013092,-1.051605,0.013984,0.017542,0.002634,0.999898,0.002879,-0.013982,-0.002633,0.999843,0.017541,0.014030,-0.017503,0.999748,0.013982,-0.017541,-0.999748,-0.167958,0.010019,-0.043007,0.004565,0.004938,-0.002790,346.268341,350.731140,-1.000000,0.000000,0.000000
482149309.017285,-0.023895,-0.013092,-1.051605,0.013984,0.017542,0.002634,0.999898,0.002879,-0.013982,-0.002633,0.999843,0.017541,0.014030,-0.017503,0.999748,0.013982,-0.017541,-0.999748,-0.167958,0.010019,-0.043007,0.004565,0.004938,-0.002790,346.274536,350.737335,-1.000000,0.000000,0.000000
482149309.027447,0.042435,-0.007507,-1.062866,0.013998,0.017521,0.002660,0.999898,0.002905,-0.013995,-0.002660,0.999843,0.017520,0.014044,-0.017481,0.999749,0.013995,-0.017520,-0.999749,-0.055759,0.015430,-0.088249,-0.004093,-0.000834,0.004547,346.274536,350.737335,-1.000000,0.000000,0.000000
482149309.040245,0.148300,0.004257,-1.072891,0.014037,0.017484,0.002702,0.999897,0.002947,-0.014035,-0.002701,0.999844,0.017483,0.014084,-0.017443,0.999749,0.014035,-0.017483,-0.999749,-0.037930,0.004391,-0.051857,-0.001643,-0.000775,0.009483,346.274536,350.737335,-1.000000,0.000000,0.000000
482149309.047337,0.148300,0.004257,-1.072891,0.014037,0.017484,0.002702,0.999897,0.002947,-0.014035,-0.002701,0.999844,0.017483,0.014084,-0.017443,0.999749,0.014035,-0.017483,-0.999749,-0.037930,0.004391,-0.051857,-0.001643,-0.000775,0.009483,346.274536,350.737335,-1.000000,0.000000,0.000000
482149309.057495,0.031631,-0.012238,-1.060028,0.014062,0.017451,0.002764,0.999897,0.003009,-0.014059,-0.002764,0.999844,0.017450,0.014110,-0.017409,0.999749,0.014059,-0.017450,-0.999749,0.028376,0.009943,-0.063117,-0.000389,0.001491,0.003337,346.274536,350.737335,-1.000000,0.000000,0.000000
482149309.067498,0.037476,-0.005478,-1.071732,0.014062,0.017451,0.002764,0.999897,0.003009,-0.014059,-0.002764,0.999844,0.017450,0.014110,-0.017409,0.999749,0.014059,-0.017450,-0.999749,0.028376,0.009943,-0.063117,-0.000389,0.001491,0.003337,346.274323,350.737122,-1.000000,0.000000,0.000000
482149309.077469,0.107880,-0.010666,-1.051636,0.014124,0.017504,0.002829,0.999896,0.003076,-0.014121,-0.002828,0.999843,0.017503,0.014173,-0.017462,0.999747,0.014121,-0.017503,-0.999747,0.134179,0.021761,-0.073144,0.003300,0.002703,0.007049,346.274323,350.737122,-1.000000,0.000000,0.000000
482149309.087578,0.051407,-0.007736,-1.069672,0.014138,0.017507,0.002879,0.999895,0.003126,-0.014135,-0.002879,0.999843,0.017506,0.014187,-0.017464,0.999747,0.014135,-0.017506,-0.999747,0.017497,0.005269,-0.060281,-0.002859,0.002639,0.004558,346.274323,350.737122,-1.000000,0.000000,0.000000
482149309.098138,-0.085541,-0.004990,-1.054993,0.014167,0.017553,0.002842,0.999895,0.003090,-0.014164,-0.002842,0.999842,0.017553,0.014216,-0.017510,0.999746,0.014164,-0.017553,-0.999746,0.023311,0.012075,-0.071986,0.000861,0.002613,-0.001580,346.274323,350.737122,-1.000000,0.000000,0.000000
482149309.111319,-0.085541,-0.004990,-1.054993,0.014167,0.017553,0.002842,0.999895,0.003090,-0.014164,-0.002842,0.999842,0.017553,0.014216,-0.017510,0.999746,0.014164,-0.017553,-0.999746,0.023311,0.012075,-0.071986,0.000861,0.002613,-0.001580,346.274323,350.737122,-1.000000,0.000000,0.000000
482149309.116754,-0.181488,-0.009201,-1.073334,0.014169,0.017503,0.002911,0.999895,0.003159,-0.014166,-0.002910,0.999843,0.017502,0.014219,-0.017459,0.999747,0.014166,-0.017502,-0.999747,0.093713,0.006836,-0.051889,-0.004117,-0.000772,0.011933,346.272217,350.735016,-1.000000,0.000000,0.000000
482149309.127731,-0.033035,-0.003998,-1.054611,0.014142,0.017500,0.002838,0.999895,0.003085,-0.014139,-0.002838,0.999843,0.017500,0.014191,-0.017458,0.999747,0.014139,-0.017500,-0.999747,-0.099680,0.012510,-0.055246,0.003339,0.001444,-0.005264,346.272217,350.735016,-1.000000,0.000000,0.000000
482149309.137643,-0.017151,-0.000443,-1.068207,0.014142,0.017500,0.002838,0.999895,0.003085,-0.014139,-0.002838,0.999843,0.017500,0.014191,-0.017458,0.999747,0.014139,-0.017500,-0.999747,-0.099680,0.012510,-0.055246,0.003339,0.001444,-0.005264,346.272217,350.735016,-1.000000,0.000000,0.000000
482149309.147275,-0.048660,-0.005875,-1.081177,0.014162,0.017479,0.002823,0.999895,0.003070,-0.014159,-0.002822,0.999843,0.017478,0.014210,-0.017436,0.999747,0.014159,-0.017478,-0.999747,-0.195647,0.008277,-0.073587,-0.004089,0.002619,0.003321,346.272217,350.735016,-1.000000,0.000000,0.000000
482149309.157723,-0.046631,-0.014679,-1.055695,0.014184,0.017436,0.002870,0.999895,0.003117,-0.014181,-0.002870,0.999844,0.017435,0.014233,-0.017392,0.999747,0.014181,-0.017435,-0.999747,-0.031332,0.016992,-0.068459,-0.000365,0.001428,-0.004050,346.272217,350.735016,-1.000000,0.000000,0.000000
482149309.167378,-0.026947,-0.006210,-1.068283,0.014184,0.017436,0.002870,0.999895,0.003117,-0.014181,-0.002870,0.999844,0.017435,0.014233,-0.017392,0.999747,0.014181,-0.017435,-0.999747,-0.031332,0.016992,-0.068459,-0.000365,0.001428,-0.004050,346.267303,350.730103,-1.000000,0.000000,0.000000
482149309.177454,0.081055,-0.008194,-1.054764,0.014176,0.017390,0.002837,0.999895,0.003083,-0.014173,-0.002837,0.999845,0.017389,0.014224,-0.017347,0.999748,0.014173,-0.017389,-0.999748,-0.062833,0.011514,-0.081428,-0.006548,0.000271,0.000844,346.267303,350.730103,-1.000000,0.000000,0.000000
482149309.187658,0.090088,-0.002670,-1.089005,0.014142,0.017383,0.002920,0.999895,0.003166,-0.014139,-0.002920,0.999845,0.017382,0.014192,-0.017339,0.999749,0.014139,-0.017382,-0.999749,-0.060770,0.002703,-0.055946,0.000863,-0.003171,-0.002821,346.267303,350.730103,-1.000000,0.000000,0.000000
482149309.197700,0.044266,-0.011261,-1.027603,0.014142,0.017383,0.002920,0.999895,0.003166,-0.014139,-0.002920,0.999845,0.017382,0.014192,-0.017339,0.999749,0.014139,-0.017382,-0.999749,-0.060770,0.002703,-0.055946,0.000863,-0.003171,-0.002821,346.267303,350.730103,-1.000000,0.000000,0.000000
482149309.207310,0.086121,-0.007431,-1.071381,0.014139,0.017373,0.002887,0.999895,0.003132,-0.014137,-0.002886,0.999845,0.017372,0.014189,-0.017330,0.999749,0.014137,-0.017372,-0.999749,-0.041084,0.011162,-0.068534,-0.001606,0.001440,-0.001594,346.267303,350.730103,-1.000000,0.000000,0.000000
482149309.216780,0.086121,-0.007431,-1.071381,0.014112,0.017383,0.002850,0.999896,0.003095,-0.014109,-0.002849,0.999845,0.017383,0.014161,-0.017341,0.999749,0.014109,-0.017383,-0.999749,0.075979,0.014712,-0.089255,0.007022,-0.000797,-0.000327,346.267303,350.730103,-1.000000,0.000000,0.000000
482149309.229529,0.117752,-0.011810,-1.042755,0.014112,0.017383,0.002850,0.999896,0.003095,-0.014109,-0.002849,0.999845,0.017383,0.014161,-0.017341,0.999749,0.014109,-0.017383,-0.999749,0.075979,0.014712,-0.089255,0.007022,-0.000797,-0.000327,346.260956,350.723755,-1.000000,0.000000,0.000000
482149309.236765,0.026764,-0.011246,-1.076736,0.014105,0.017415,0.002774,0.999896,0.003019,-0.014102,-0.002774,0.999844,0.017414,0.014152,-0.017373,0.999749,0.014102,-0.017414,-0.999749,0.030164,0.006153,-0.027854,0.003366,-0.004403,-0.013891,346.260956,350.723755,-1.000000,0.000000,0.000000
482149309.247356,-0.020859,-0.012238,-1.063339,0.014106,0.017443,0.002707,0.999896,0.002953,-0.014103,-0.002707,0.999844,0.017442,0.014153,-0.017402,0.999748,0.014103,-0.017442,-0.999748,0.103649,0.005632,-0.043007,-0.000352,0.004861,-0.007738,346.260956,350.723755,-1.000000,0.000000,0.000000
482149309.260846,-0.095261,-0.011765,-1.058990,0.014098,0.017415,0.002668,0.999896,0.002913,-0.014095,-0.002667,0.999845,0.017414,0.014144,-0.017374,0.999749,0.014095,-0.017414,-0.999749,0.103657,0.005604,-0.043006,-0.002832,-0.002054,-0.004067,346.260956,350.723755,-1.000000,0.000000,0.000000
482149309.266845,-0.024200,-0.005066,-1.036896,0.014098,0.017415,0.002668,0.999896,0.002913,-0.014095,-0.002667,0.999845,0.017414,0.014144,-0.017374,0.999749,0.014095,-0.017414,-0.999749,0.103657,0.005604,-0.043006,-0.002832,-0.002054,-0.004067,346.260956,350.723755,-1.000000,0.000000,0.000000
482149309.277697,-0.021896,-0.011230,-1.063354,0.014120,0.017378,0.002709,0.999896,0.002954,-0.014117,-0.002709,0.999845,0.017377,0.014167,-0.017337,0.999749,0.014117,-0.017377,-0.999749,-0.034976,0.005139,-0.063590,-0.000381,-0.000839,0.000870,346.255646,350.718445,-1.000000,0.000000,0.000000
482149309.287439,-0.076523,-0.005249,-1.068634,0.014123,0.017392,0.002700,0.999896,0.002946,-0.014120,-0.002700,0.999845,0.017391,0.014170,-0.017351,0.999749,0.014120,-0.017391,-0.999749,-0.109381,0.005626,-0.059241,0.000840,0.000282,-0.002748,346.255646,350.718445,-1.000000,0.000000,0.000000
482149309.297923,-0.045547,-0.017715,-1.061569,0.014123,0.017392,0.002700,0.999896,0.002946,-0.014120,-0.002700,0.999845,0.017391,0.014170,-0.017351,0.999749,0.014120,-0.017391,-0.999749,-0.109381,0.005626,-0.059241,0.000840,0.000282,-0.002748,346.255646,350.718445,-1.000000,0.000000,0.000000
482149309.307302,0.017761,-0.003250,-1.090500,0.014066,0.017324,0.002719,0.999897,0.002962,-0.014064,-0.002719,0.999846,0.017323,0.014113,-0.017283,0.999751,0.014064,-0.017323,-0.999751,-0.035960,0.006093,-0.063603,-0.002869,-0.004343,-0.000310,346.255646,350.718445,-1.000000,0.000000,0.000000
482149309.318811,0.102951,-0.010605,-1.055603,0.014031,0.017362,0.002674,0.999897,0.002917,-0.014028,-0.002674,0.999846,0.017361,0.014077,-0.017322,0.999751,0.014028,-0.017361,-0.999751,-0.090551,0.012112,-0.068883,0.008243,-0.004295,-0.003952,346.255646,350.718445,-1.000000,0.000000,0.000000
482149309.326944,0.102951,-0.010605,-1.055603,0.014031,0.017362,0.002674,0.999897,0.002917,-0.014028,-0.002674,0.999846,0.017361,0.014077,-0.017322,0.999751,0.014028,-0.017361,-0.999751,-0.090551,0.012112,-0.068883,0.008243,-0.004295,-0.003952,346.251038,350.713837,-1.000000,0.000000,0.000000
482149309.337403,0.149323,0.004211,-1.076797,0.014020,0.017366,0.002668,0.999898,0.002911,-0.014017,-0.002668,0.999846,0.017365,0.014066,-0.017326,0.999751,0.014017,-0.017365,-0.999751,-0.059565,-0.000350,-0.061818,-0.005346,0.000290,0.003379,346.251038,350.713837,-1.000000,0.000000,0.000000
482149309.347592,0.031418,-0.007202,-1.048248,0.014011,0.017338,0.002678,0.999898,0.002920,-0.014009,-0.002677,0.999846,0.017337,0.014057,-0.017298,0.999752,0.014009,-0.017337,-0.999752,0.003753,0.014087,-0.090748,-0.004102,-0.002042,-0.000312,346.251038,350.713837,-1.000000,0.000000,0.000000
482149309.357797,0.034576,-0.007416,-1.072739,0.014011,0.017338,0.002678,0.999898,0.002920,-0.014009,-0.002677,0.999846,0.017337,0.014057,-0.017298,0.999752,0.014009,-0.017337,-0.999752,0.003753,0.014087,-0.090748,-0.004102,-0.002042,-0.000312,346.251038,350.713837,-1.000000,0.000000,0.000000
482149309.366761,0.112793,-0.006851,-1.061401,0.014078,0.017265,0.002703,0.999897,0.002946,-0.014075,-0.002702,0.999847,0.017264,0.014124,-0.017224,0.999752,0.014075,-0.017264,-0.999752,0.135247,0.021475,-0.077046,-0.006582,0.007220,0.004616,346.251038,350.713837,-1.000000,0.000000,0.000000
482149309.377662,-0.001160,-0.003769,-1.074966,0.014047,0.017291,0.002706,0.999897,0.002948,-0.014045,-0.002705,0.999847,0.017290,0.014094,-0.017250,0.999752,0.014045,-0.017290,-0.999752,0.017373,0.010088,-0.048496,0.003297,-0.005454,-0.000283,346.245178,350.707977,-1.000000,0.000000,0.000000
482149309.388786,-0.046661,-0.009781,-1.067459,0.014047,0.017291,0.002706,0.999897,0.002948,-0.014045,-0.002705,0.999847,0.017290,0.014094,-0.017250,0.999752,0.014045,-0.017290,-0.999752,0.017373,0.010088,-0.048496,0.003297,-0.005454,-0.000283,346.245178,350.707977,-1.000000,0.000000,0.000000
482149309.397498,-0.144867,-0.003052,-1.083832,0.014003,0.017265,0.002688,0.999898,0.002930,-0.014000,-0.002688,0.999847,0.017264,0.014049,-0.017224,0.999753,0.014000,-0.017264,-0.999753,0.098793,0.010413,-0.061648,0.002062,0.001477,0.000952,346.245178,350.707977,-1.000000,0.000000,0.000000
482149309.407598,-0.052658,-0.014481,-1.044952,0.014035,0.017350,0.002619,0.999897,0.002862,-0.014032,-0.002618,0.999846,0.017349,0.014080,-0.017311,0.999751,0.014032,-0.017349,-0.999751,-0.015192,0.013580,-0.075215,0.009474,0.003807,-0.002703,346.245178,350.707977,-1.000000,0.000000,0.000000
482149309.418543,-0.044800,-0.003891,-1.072327,0.014035,0.017438,0.002642,0.999897,0.002887,-0.014033,-0.002642,0.999844,0.017438,0.014081,-0.017399,0.999749,0.014033,-0.017438,-0.999749,-0.060694,0.007657,-0.067710,0.008212,0.000407,0.005903,346.245178,350.707977,-1.000000,0.000000,0.000000
482149309.428611,-0.078629,-0.007996,-1.040253,0.014035,0.017438,0.002642,0.999897,0.002887,-0.014033,-0.002642,0.999844,0.017438,0.014081,-0.017399,0.999749,0.014033,-0.017438,-0.999749,-0.060694,0.007657,-0.067710,0.008212,0.000407,0.005903,346.242432,350.705231,-1.000000,0.000000,0.000000
482149309.438099,-0.072357,-0.015198,-1.062744,0.013983,0.017531,0.002662,0.999898,0.002907,-0.013980,-0.002662,0.999843,0.017530,0.014029,-0.017491,0.999749,0.013980,-0.017530,-0.999749,-0.158847,0.014478,-0.084083,0.007001,-0.005438,-0.001498,346.242432,350.705231,-1.000000,0.000000,0.000000
482149309.449470,0.102173,-0.012741,-1.079132,0.013977,0.017505,0.002681,0.999898,0.002925,-0.013974,-0.002680,0.999843,0.017504,0.014023,-0.017465,0.999749,0.013974,-0.017504,-0.999749,-0.058774,0.013613,-0.072578,-0.005334,0.002568,-0.000310,346.242432,350.705231,-1.000000,0.000000,0.000000
482149309.457438,0.102173,-0.012741,-1.079132,0.013977,0.017505,0.002681,0.999898,0.002925,-0.013974,-0.002680,0.999843,0.017504,0.014023,-0.017465,0.999749,0.013974,-0.017504,-0.999749,-0.058774,0.013613,-0.072578,-0.005334,0.002568,-0.000310,346.242432,350.705231,-1.000000,0.000000,0.000000
482149309.467580,0.140610,-0.008408,-1.062164,0.013952,0.017435,0.002655,0.999898,0.002898,-0.013949,-0.002654,0.999844,0.017434,0.013997,-0.017395,0.999751,0.013949,-0.017434,-0.999751,-0.092577,0.009438,-0.040502,-0.004086,-0.000929,-0.005234,346.242432,350.705231,-1.000000,0.000000,0.000000
482149309.477513,0.152557,-0.006744,-1.073853,0.013958,0.017444,0.002601,0.999899,0.002844,-0.013955,-0.002601,0.999844,0.017444,0.014003,-0.017405,0.999750,0.013955,-0.017444,-0.999750,0.088218,0.004702,-0.079382,0.002077,-0.002030,-0.003978,346.242432,350.705231,-1.000000,0.000000,0.000000
482149309.487915,0.043411,-0.011368,-1.045258,0.013958,0.017444,0.002601,0.999899,0.002844,-0.013955,-0.002601,0.999844,0.017444,0.014003,-0.017405,0.999750,0.013955,-0.017444,-0.999750,0.088218,0.004702,-0.079382,0.002077,-0.002030,-0.003978,346.238708,350.701508,-1.000000,0.000000,0.000000
482149309.496871,0.084152,-0.008377,-1.071396,0.013927,0.017422,0.002592,0.999899,0.002835,-0.013924,-0.002592,0.999845,0.017422,0.013972,-0.017384,0.999751,0.013924,-0.017422,-0.999751,0.126685,0.009014,-0.062413,-0.004095,-0.005528,-0.002780,346.238708,350.701508,-1.000000,0.000000,0.000000
482149309.507573,0.115631,-0.004868,-1.048630,0.013949,0.017433,0.002629,0.999899,0.002872,-0.013947,-0.002628,0.999845,0.017432,0.013995,-0.017394,0.999751,0.013947,-0.017432,-0.999751,0.138611,0.010688,-0.074102,-0.000393,0.001428,-0.002752,346.238708,350.701508,-1.000000,0.000000,0.000000
482149309.517702,0.005157,-0.018784,-1.074936,0.013949,0.017433,0.002629,0.999899,0.002872,-0.013947,-0.002628,0.999845,0.017432,0.013995,-0.017394,0.999751,0.013947,-0.017432,-0.999751,0.138611,0.010688,-0.074102,-0.000393,0.001428,-0.002752,346.238708,350.701508,-1.000000,0.000000,0.000000
482149309.527222,-0.006973,-0.012527,-1.065201,0.013975,0.017429,0.002578,0.999898,0.002821,-0.013973,-0.002578,0.999845,0.017428,0.014020,-0.017390,0.999750,0.013973,-0.017428,-0.999750,0.029439,0.006060,-0.045507,0.000844,-0.000884,-0.003981,346.238708,350.701508,-1.000000,0.000000,0.000000
482149309.537981,-0.158783,-0.003738,-1.079025,0.014003,0.017379,0.002621,0.999898,0.002864,-0.014000,-0.002620,0.999846,0.017378,0.014048,-0.017340,0.999751,0.014000,-0.017378,-0.999751,0.101631,0.012511,-0.048879,0.000832,0.001457,-0.000284,346.240143,350.702942,-1.000000,0.000000,0.000000
482149309.547305,-0.158783,-0.003738,-1.079025,0.014003,0.017379,0.002621,0.999898,0.002864,-0.014000,-0.002620,0.999846,0.017378,0.014048,-0.017340,0.999751,0.014000,-0.017378,-0.999751,0.101631,0.012511,-0.048879,0.000832,0.001457,-0.000284,346.240143,350.702942,-1.000000,0.000000,0.000000
482149309.557043,-0.044907,-0.009598,-1.037064,0.013989,0.017351,0.002625,0.999898,0.002867,-0.013986,-0.002624,0.999846,0.017350,0.014034,-0.017312,0.999752,0.013986,-0.017350,-0.999752,-0.008828,-0.001433,-0.075184,-0.002903,-0.000834,0.005903,346.240143,350.702942,-1.000000,0.000000,0.000000
482149309.566972,-0.040726,-0.005035,-1.082108,0.014012,0.017361,0.002572,0.999898,0.002815,-0.014009,-0.002572,0.999846,0.017360,0.014056,-0.017322,0.999751,0.014009,-0.017360,-0.999751,-0.172792,0.013621,-0.079274,0.002062,-0.002038,-0.003925,346.240143,350.702942,-1.000000,0.000000,0.000000
482149309.584146,-0.031967,-0.004089,-1.063400,0.014009,0.017362,0.002546,0.999898,0.002789,-0.014006,-0.002545,0.999846,0.017361,0.014053,-0.017324,0.999751,0.014006,-0.017361,-0.999751,-0.058913,0.007764,-0.037312,0.000825,-0.000881,-0.002698,346.240143,350.702942,-1.000000,0.000000,0.000000
482149309.586915,-0.031967,-0.004089,-1.063400,0.014009,0.017362,0.002546,0.999898,0.002789,-0.014006,-0.002545,0.999846,0.017361,0.014053,-0.017324,0.999751,0.014006,-0.017361,-0.999751,-0.058913,0.007764,-0.037312,0.000825,-0.000881,-0.002698,346.240143,350.702942,-1.000000,0.000000,0.000000
482149309.597730,0.054230,-0.000839,-1.072586,0.014004,0.017390,0.002553,0.999898,0.002796,-0.014001,-0.002552,0.999846,0.017389,0.014047,-0.017352,0.999751,0.014001,-0.017389,-0.999751,-0.054727,0.012354,-0.082357,0.003304,-0.000895,-0.006380,346.244385,350.707184,-1.000000,0.000000,0.000000
482149309.608797,0.140717,-0.013336,-1.061218,0.013996,0.017428,0.002544,0.999898,0.002788,-0.013993,-0.002544,0.999845,0.017427,0.014039,-0.017390,0.999750,0.013993,-0.017427,-0.999750,-0.083436,0.002214,-0.056112,0.004516,-0.003143,-0.000223,346.244385,350.707184,-1.000000,0.000000,0.000000
482149309.617711,0.044373,-0.011353,-1.041321,0.013996,0.017428,0.002544,0.999898,0.002788,-0.013993,-0.002544,0.999845,0.017427,0.014039,-0.017390,0.999750,0.013993,-0.017427,-0.999750,-0.083436,0.002214,-0.056112,0.004516,-0.003143,-0.000223,346.244385,350.707184,-1.000000,0.000000,0.000000
