Timestamp,Accel_X,Accel_Y,Accel_Z,Roll,Pitch,Yaw,RM11,RM12,RM13,RM21,RM22,RM23,RM31,RM32,RM33,GravAcc_X,GravAcc_Y,GravAcc_Z,UserAcc_X,UserAcc_Y,UserAcc_Z,RotRate_X,RotRate_Y,RotRate_Z,MagHeading,TrueHeading,HeadingAccuracy,Course,Speed
482148606.202777,0.010681,-0.004913,-1.066040,0.010177,0.007911,0.055487,0.998405,0.055536,-0.010177,-0.055456,0.998430,0.007911,0.010600,-0.007334,0.999917,0.010177,-0.007911,-0.999917,-0.003265,-0.001962,-0.074012,-0.000712,-0.001623,0.008094,345.269623,349.732422,-1.000000,0.000000,0.000000
482148606.217150,0.015671,-0.007004,-1.063065,0.010177,0.007911,0.055487,0.998405,0.055536,-0.010177,-0.055456,0.998430,0.007911,0.010600,-0.007334,0.999917,0.010177,-0.007911,-0.999917,-0.003265,-0.001962,-0.074012,-0.000712,-0.001623,0.008094,345.269623,349.732422,-1.000000,0.000000,0.000000
482148606.238469,0.008820,-0.009857,-1.066071,0.010177,0.007911,0.055487,0.998405,0.055536,-0.010177,-0.055456,0.998430,0.007911,0.010600,-0.007334,0.999917,0.010177,-0.007911,-0.999917,-0.003265,-0.001962,-0.074012,-0.000712,-0.001623,0.008094,345.269623,349.732422,-1.000000,0.000000,0.000000
482148606.243820,0.008820,-0.009857,-1.066071,0.010177,0.007911,0.055487,0.998405,0.055536,-0.010177,-0.055456,0.998430,0.007911,0.010600,-0.007334,0.999917,0.010177,-0.007911,-0.999917,-0.003265,-0.001962,-0.074012,-0.000712,-0.001623,0.008094,345.269623,349.732422,-1.000000,0.000000,0.000000
482148606.252138,0.005859,-0.010742,-1.062180,0.010177,0.007911,0.055487,0.998405,0.055536,-0.010177,-0.055456,0.998430,0.007911,0.010600,-0.007334,0.999917,0.010177,-0.007911,-0.999917,-0.003265,-0.001962,-0.074012,-0.000712,-0.001623,0.008094,345.269623,349.732422,-1.000000,0.000000,0.000000
482148606.262347,0.010864,-0.014786,-1.056274,0.010177,0.007911,0.055487,0.998405,0.055536,-0.010177,-0.055456,0.998430,0.007911,0.010600,-0.007334,0.999917,0.010177,-0.007911,-0.999917,-0.003265,-0.001962,-0.074012,-0.000712,-0.001623,0.008094,345.269623,349.732422,-1.000000,0.000000,0.000000
482148606.272356,0.015808,-0.010025,-1.070938,0.010177,0.007911,0.055487,0.998405,0.055536,-0.010177,-0.055456,0.998430,0.007911,0.010600,-0.007334,0.999917,0.010177,-0.007911,-0.999917,-0.003265,-0.001962,-0.074012,-0.000712,-0.001623,0.008094,345.269623,349.732422,-1.000000,0.000000,0.000000
482148606.282460,0.007843,-0.010818,-1.066071,0.010177,0.007911,0.055487,0.998405,0.055536,-0.010177,-0.055456,0.998430,0.007911,0.010600,-0.007334,0.999917,0.010177,-0.007911,-0.999917,-0.003265,-0.001962,-0.074012,-0.000712,-0.001623,0.008094,345.269623,349.732422,-1.000000,0.000000,0.000000
482148606.292901,0.008865,-0.010849,-1.067062,0.010177,0.007911,0.055487,0.998405,0.055536,-0.010177,-0.055456,0.998430,0.007911,0.010600,-0.007334,0.999917,0.010177,-0.007911,-0.999917,-0.003265,-0.001962,-0.074012,-0.000712,-0.001623,0.008094,345.269623,349.732422,-1.000000,0.000000,0.000000
482148606.303378,0.010757,-0.008850,-1.062149,0.010177,0.007911,0.055487,0.998405,0.055536,-0.010177,-0.055456,0.998430,0.007911,0.010600,-0.007334,0.999917,0.010177,-0.007911,-0.999917,-0.003265,-0.001962,-0.074012,-0.000712,-0.001623,0.008094,345.269623,349.732422,-1.000000,0.000000,0.000000
482148606.312463,0.005859,-0.009796,-1.066086,0.010177,0.007911,0.055487,0.998405,0.055536,-0.010177,-0.055456,0.998430,0.007911,0.010600,-0.007334,0.999917,0.010177,-0.007911,-0.999917,-0.003265,-0.001962,-0.074012,-0.000712,-0.001623,0.008094,345.269623,349.732422,-1.000000,0.000000,0.000000
482148606.321460,0.005859,-0.009796,-1.066086,0.010177,0.007911,0.055487,0.998405,0.055536,-0.010177,-0.055456,0.998430,0.007911,0.010600,-0.007334,0.999917,0.010177,-0.007911,-0.999917,-0.003265,-0.001962,-0.074012,-0.000712,-0.001623,0.008094,345.269623,349.732422,-1.000000,0.000000,0.000000
482148606.345726,0.008835,-0.011795,-1.060196,0.010177,0.007911,0.055487,0.998405,0.055536,-0.010177,-0.055456,0.998430,0.007911,0.010600,-0.007334,0.999917,0.010177,-0.007911,-0.999917,-0.003265,-0.001962,-0.074012,-0.000712,-0.001623,0.008094,345.269623,349.732422,-1.000000,0.000000,0.000000
482148606.396404,0.009750,-0.008835,-1.061172,0.010177,0.007911,0.055487,0.998405,0.055536,-0.010177,-0.055456,0.998430,0.007911,0.010600,-0.007334,0.999917,0.010177,-0.007911,-0.999917,-0.003265,-0.001962,-0.074012,-0.000712,-0.001623,0.008094,345.269623,349.732422,-1.000000,0.000000,0.000000
482148606.558917,0.011749,-0.009888,-1.062149,0.010177,0.007911,0.055487,0.998405,0.055536,-0.010177,-0.055456,0.998430,0.007911,0.010600,-0.007334,0.999917,0.010177,-0.007911,-0.999917,-0.003265,-0.001962,-0.074012,-0.000712,-0.001623,0.008094,345.269623,349.732422,-1.000000,0.000000,0.000000
482148606.565093,0.011749,-0.009888,-1.062149,0.010177,0.007911,0.055487,0.998405,0.055536,-0.010177,-0.055456,0.998430,0.007911,0.010600,-0.007334,0.999917,0.010177,-0.007911,-0.999917,-0.003265,-0.001962,-0.074012,-0.000712,-0.001623,0.008094,345.269623,349.732422,-1.000000,0.000000,0.000000
482148606.572114,0.011841,-0.012878,-1.064102,0.010177,0.007911,0.055487,0.998405,0.055536,-0.010177,-0.055456,0.998430,0.007911,0.010600,-0.007334,0.999917,0.010177,-0.007911,-0.999917,-0.003265,-0.001962,-0.074012,-0.000712,-0.001623,0.008094,345.269623,349.732422,-1.000000,0.000000,0.000000
482148606.583561,0.010666,-0.005875,-1.059189,0.010177,0.007911,0.055487,0.998405,0.055536,-0.010177,-0.055456,0.998430,0.007911,0.010600,-0.007334,0.999917,0.010177,-0.007911,-0.999917,-0.003265,-0.001962,-0.074012,-0.000712,-0.001623,0.008094,345.269623,349.732422,-1.000000,0.000000,0.000000
482148606.592222,0.008774,-0.008820,-1.061172,0.010177,0.007911,0.055487,0.998405,0.055536,-0.010177,-0.055456,0.998430,0.007911,0.010600,-0.007334,0.999917,0.010177,-0.007911,-0.999917,-0.003265,-0.001962,-0.074012,-0.000712,-0.001623,0.008094,345.269623,349.732422,-1.000000,0.000000,0.000000
482148606.601574,0.009827,-0.010849,-1.066071,0.010177,0.007911,0.055487,0.998405,0.055536,-0.010177,-0.055456,0.998430,0.007911,0.010600,-0.007334,0.999917,0.010177,-0.007911,-0.999917,-0.003265,-0.001962,-0.074012,-0.000712,-0.001623,0.008094,345.269623,349.732422,-1.000000,0.000000,0.000000
482148606.617865,0.012741,-0.009888,-1.059189,0.010177,0.007911,0.055487,0.998405,0.055536,-0.010177,-0.055456,0.998430,0.007911,0.010600,-0.007334,0.999917,0.010177,-0.007911,-0.999917,-0.003265,-0.001962,-0.074012,-0.000712,-0.001623,0.008094,345.269623,349.732422,-1.000000,0.000000,0.000000
482148606.621480,0.013763,-0.010880,-1.060165,0.010177,0.007911,0.055487,0.998405,0.055536,-0.010177,-0.055456,0.998430,0.007911,0.010600,-0.007334,0.999917,0.010177,-0.007911,-0.999917,-0.003265,-0.001962,-0.074012,-0.000712,-0.001623,0.008094,345.269623,349.732422,-1.000000,0.000000,0.000000
482148606.638898,0.007767,-0.008789,-1.060196,0.010177,0.007911,0.055487,0.998405,0.055536,-0.010177,-0.055456,0.998430,0.007911,0.010600,-0.007334,0.999917,0.010177,-0.007911,-0.999917,-0.003265,-0.001962,-0.074012,-0.000712,-0.001623,0.008094,345.269623,349.732422,-1.000000,0.000000,0.000000
482148606.642075,0.009689,-0.006866,-1.062149,0.010177,0.007911,0.055487,0.998405,0.055536,-0.010177,-0.055456,0.998430,0.007911,0.010600,-0.007334,0.999917,0.010177,-0.007911,-0.999917,-0.003265,-0.001962,-0.074012,-0.000712,-0.001623,0.008094,345.269623,349.732422,-1.000000,0.000000,0.000000
482148606.652535,0.011765,-0.010849,-1.059204,0.010177,0.007911,0.055487,0.998405,0.055536,-0.010177,-0.055456,0.998430,0.007911,0.010600,-0.007334,0.999917,0.010177,-0.007911,-0.999917,-0.003265,-0.001962,-0.074012,-0.000712,-0.001623,0.008094,345.269623,349.732422,-1.000000,0.000000,0.000000
482148606.667733,0.009766,-0.007889,-1.067062,0.010177,0.007911,0.055487,0.998405,0.055536,-0.010177,-0.055456,0.998430,0.007911,0.010600,-0.007334,0.999917,0.010177,-0.007911,-0.999917,-0.003265,-0.001962,-0.074012,-0.000712,-0.001623,0.008094,345.269623,349.732422,-1.000000,0.000000,0.000000
482148606.671746,0.009766,-0.007889,-1.067062,0.010177,0.007911,0.055487,0.998405,0.055536,-0.010177,-0.055456,0.998430,0.007911,0.010600,-0.007334,0.999917,0.010177,-0.007911,-0.999917,-0.003265,-0.001962,-0.074012,-0.000712,-0.001623,0.008094,345.269623,349.732422,-1.000000,0.000000,0.000000
482148606.682532,0.011734,-0.009872,-1.059204,0.010177,0.007911,0.055487,0.998405,0.055536,-0.010177,-0.055456,0.998430,0.007911,0.010600,-0.007334,0.999917,0.010177,-0.007911,-0.999917,-0.003265,-0.001962,-0.074012,-0.000712,-0.001623,0.008094,345.269623,349.732422,-1.000000,0.000000,0.000000
482148606.702285,0.011703,-0.007889,-1.062149,0.010177,0.007911,0.055487,0.998405,0.055536,-0.010177,-0.055456,0.998430,0.007911,0.010600,-0.007334,0.999917,0.010177,-0.007911,-0.999917,-0.003265,-0.001962,-0.074012,-0.000712,-0.001623,0.008094,345.269623,349.732422,-1.000000,0.000000,0.000000
482148606.722987,0.009857,-0.012833,-1.063126,0.010177,0.007911,0.055487,0.998405,0.055536,-0.010177,-0.055456,0.998430,0.007911,0.010600,-0.007334,0.999917,0.010177,-0.007911,-0.999917,-0.003265,-0.001962,-0.074012,-0.000712,-0.001623,0.008094,345.269623,349.732422,-1.000000,0.000000,0.000000
482148606.731771,0.008713,-0.006851,-1.062149,0.010177,0.007911,0.055487,0.998405,0.055536,-0.010177,-0.055456,0.998430,0.007911,0.010600,-0.007334,0.999917,0.010177,-0.007911,-0.999917,-0.003265,-0.001962,-0.074012,-0.000712,-0.001623,0.008094,345.269623,349.732422,-1.000000,0.000000,0.000000
482148606.751300,0.010681,-0.006866,-1.059189,0.010177,0.007911,0.055487,0.998405,0.055536,-0.010177,-0.055456,0.998430,0.007911,0.010600,-0.007334,0.999917,0.010177,-0.007911,-0.999917,-0.003265,-0.001962,-0.074012,-0.000712,-0.001623,0.008094,345.269623,349.732422,-1.000000,0.000000,0.000000
482148606.762792,0.009766,-0.008850,-1.063126,0.010177,0.007911,0.055487,0.998405,0.055536,-0.010177,-0.055456,0.998430,0.007911,0.010600,-0.007334,0.999917,0.010177,-0.007911,-0.999917,-0.003265,-0.001962,-0.074012,-0.000712,-0.001623,0.008094,345.269623,349.732422,-1.000000,0.000000,0.000000
482148606.772130,0.009750,-0.008835,-1.061172,0.010177,0.007911,0.055487,0.998405,0.055536,-0.010177,-0.055456,0.998430,0.007911,0.010600,-0.007334,0.999917,0.010177,-0.007911,-0.999917,-0.003265,-0.001962,-0.074012,-0.000712,-0.001623,0.008094,345.269623,349.732422,-1.000000,0.000000,0.000000
482148606.783701,0.011917,-0.015869,-1.064102,0.010177,0.007911,0.055487,0.998405,0.055536,-0.010177,-0.055456,0.998430,0.007911,0.010600,-0.007334,0.999917,0.010177,-0.007911,-0.999917,-0.003265,-0.001962,-0.074012,-0.000712,-0.001623,0.008094,345.269623,349.732422,-1.000000,0.000000,0.000000
482148606.792052,0.011917,-0.015869,-1.064102,0.010177,0.007911,0.055487,0.998405,0.055536,-0.010177,-0.055456,0.998430,0.007911,0.010600,-0.007334,0.999917,0.010177,-0.007911,-0.999917,-0.003265,-0.001962,-0.074012,-0.000712,-0.001623,0.008094,345.269623,349.732422,-1.000000,0.000000,0.000000
482148606.804398,0.005859,-0.010727,-1.060211,0.010177,0.007911,0.055487,0.998405,0.055536,-0.010177,-0.055456,0.998430,0.007911,0.010600,-0.007334,0.999917,0.010177,-0.007911,-0.999917,-0.003265,-0.001962,-0.074012,-0.000712,-0.001623,0.008094,345.269623,349.732422,-1.000000,0.000000,0.000000
482148606.812242,0.008636,-0.004822,-1.057236,0.010177,0.007911,0.055487,0.998405,0.055536,-0.010177,-0.055456,0.998430,0.007911,0.010600,-0.007334,0.999917,0.010177,-0.007911,-0.999917,-0.003265,-0.001962,-0.074012,-0.000712,-0.001623,0.008094,345.269623,349.732422,-1.000000,0.000000,0.000000
482148606.822847,0.007767,-0.008789,-1.060196,0.010177,0.007911,0.055487,0.998405,0.055536,-0.010177,-0.055456,0.998430,0.007911,0.010600,-0.007334,0.999917,0.010177,-0.007911,-0.999917,-0.003265,-0.001962,-0.074012,-0.000712,-0.001623,0.008094,345.269623,349.732422,-1.000000,0.000000,0.000000
482148606.842411,0.010849,-0.012817,-1.060181,0.010177,0.007911,0.055487,0.998405,0.055536,-0.010177,-0.055456,0.998430,0.007911,0.010600,-0.007334,0.999917,0.010177,-0.007911,-0.999917,-0.003265,-0.001962,-0.074012,-0.000712,-0.001623,0.008094,345.269623,349.732422,-1.000000,0.000000,0.000000
482148606.852428,0.007660,-0.002914,-1.067047,0.010177,0.007911,0.055487,0.998405,0.055536,-0.010177,-0.055456,0.998430,0.007911,0.010600,-0.007334,0.999917,0.010177,-0.007911,-0.999917,-0.003265,-0.001962,-0.074012,-0.000712,-0.001623,0.008094,345.269623,349.732422,-1.000000,0.000000,0.000000
482148606.868188,0.011795,-0.012833,-1.057236,0.010177,0.007911,0.055487,0.998405,0.055536,-0.010177,-0.055456,0.998430,0.007911,0.010600,-0.007334,0.999917,0.010177,-0.007911,-0.999917,-0.003265,-0.001962,-0.074012,-0.000712,-0.001623,0.008094,345.269623,349.732422,-1.000000,0.000000,0.000000
482148606.872208,0.011795,-0.012833,-1.057236,0.010177,0.007911,0.055487,0.998405,0.055536,-0.010177,-0.055456,0.998430,0.007911,0.010600,-0.007334,0.999917,0.010177,-0.007911,-0.999917,-0.003265,-0.001962,-0.074012,-0.000712,-0.001623,0.008094,345.269623,349.732422,-1.000000,0.000000,0.000000
482148606.886593,0.007828,-0.010803,-1.064117,0.010177,0.007911,0.055487,0.998405,0.055536,-0.010177,-0.055456,0.998430,0.007911,0.010600,-0.007334,0.999917,0.010177,-0.007911,-0.999917,-0.003265,-0.001962,-0.074012,-0.000712,-0.001623,0.008094,345.269623,349.732422,-1.000000,0.000000,0.000000
482148606.891857,0.010864,-0.012848,-1.063110,0.010177,0.007911,0.055487,0.998405,0.055536,-0.010177,-0.055456,0.998430,0.007911,0.010600,-0.007334,0.999917,0.010177,-0.007911,-0.999917,-0.003265,-0.001962,-0.074012,-0.000712,-0.001623,0.008094,345.269623,349.732422,-1.000000,0.000000,0.000000
482148606.902400,0.008820,-0.009857,-1.066071,0.010177,0.007911,0.055487,0.998405,0.055536,-0.010177,-0.055456,0.998430,0.007911,0.010600,-0.007334,0.999917,0.010177,-0.007911,-0.999917,-0.003265,-0.001962,-0.074012,-0.000712,-0.001623,0.008094,345.269623,349.732422,-1.000000,0.000000,0.000000
482148606.916359,0.012756,-0.010849,-1.057220,0.010177,0.007911,0.055487,0.998405,0.055536,-0.010177,-0.055456,0.998430,0.007911,0.010600,-0.007334,0.999917,0.010177,-0.007911,-0.999917,-0.003265,-0.001962,-0.074012,-0.000712,-0.001623,0.008094,345.269623,349.732422,-1.000000,0.000000,0.000000
482148606.921838,0.011780,-0.010849,-1.060181,0.010177,0.007911,0.055487,0.998405,0.055536,-0.010177,-0.055456,0.998430,0.007911,0.010600,-0.007334,0.999917,0.010177,-0.007911,-0.999917,-0.003265,-0.001962,-0.074012,-0.000712,-0.001623,0.008094,345.269623,349.732422,-1.000000,0.000000,0.000000
482148606.940482,0.007858,-0.012787,-1.062164,0.010177,0.007911,0.055487,0.998405,0.055536,-0.010177,-0.055456,0.998430,0.007911,0.010600,-0.007334,0.999917,0.010177,-0.007911,-0.999917,-0.003265,-0.001962,-0.074012,-0.000712,-0.001623,0.008094,345.269623,349.732422,-1.000000,0.000000,0.000000
482148606.952429,0.010773,-0.009857,-1.061157,0.010177,0.007911,0.055487,0.998405,0.055536,-0.010177,-0.055456,0.998430,0.007911,0.010600,-0.007334,0.999917,0.010177,-0.007911,-0.999917,-0.003265,-0.001962,-0.074012,-0.000712,-0.001623,0.008094,345.269623,349.732422,-1.000000,0.000000,0.000000
482148606.972665,0.006897,-0.011795,-1.066086,0.014212,0.006955,-0.000068,0.999899,0.000031,-0.014211,0.000068,0.999976,0.006955,0.014211,-0.006955,0.999875,0.014211,-0.006955,-0.999875,-0.003438,-0.002902,-0.061282,-0.000637,-0.001321,0.002183,345.269623,349.732422,-1.000000,0.000000,0.000000
482148606.981577,0.008820,-0.010788,-1.060196,0.014212,0.006955,-0.000068,0.999899,0.000031,-0.014211,0.000068,0.999976,0.006955,0.014211,-0.006955,0.999875,0.014211,-0.006955,-0.999875,-0.003438,-0.002902,-0.061282,-0.000637,-0.001321,0.002183,345.269623,349.732422,-1.000000,0.000000,0.000000
482148607.005760,0.014740,-0.008942,-1.064072,0.013077,0.007346,-0.000020,0.999915,0.000076,-0.013076,0.000020,0.999973,0.007346,0.013076,-0.007346,0.999888,0.013076,-0.007346,-0.999888,-0.006179,-0.004449,-0.066198,0.003090,0.005567,-0.005175,345.269623,349.732422,-1.000000,0.000000,0.000000
482148607.034320,0.006790,-0.008759,-1.058258,0.012495,0.007767,0.000077,0.999922,0.000174,-0.012494,-0.000077,0.999970,0.007767,0.012495,-0.007765,0.999892,0.012494,-0.007767,-0.999892,0.002246,-0.001175,-0.064180,0.003059,0.003337,0.004670,345.269623,349.732422,-1.000000,0.000000,0.000000
482148607.051985,0.007767,-0.008789,-1.060196,0.012401,0.007750,0.000123,0.999923,0.000220,-0.012400,-0.000123,0.999970,0.007750,0.012401,-0.007748,0.999893,0.012400,-0.007750,-0.999893,-0.000666,-0.000169,-0.065186,0.001828,-0.000147,0.003428,345.269623,349.732422,-1.000000,0.000000,0.000000
482148607.062385,0.011703,-0.007889,-1.062149,0.011714,0.008080,0.000118,0.999931,0.000212,-0.011714,-0.000118,0.999967,0.008080,0.011715,-0.008078,0.999899,0.011714,-0.008080,-0.999899,-0.004817,-0.004676,-0.061289,0.006774,0.001012,0.000990,345.269623,349.732422,-1.000000,0.000000,0.000000
482148607.079640,0.009750,-0.008835,-1.062164,0.011718,0.008134,0.000121,0.999931,0.000216,-0.011718,-0.000121,0.999967,0.008134,0.011719,-0.008132,0.999898,0.011718,-0.008134,-0.999898,-0.004821,-0.004622,-0.061289,0.004312,0.003293,-0.000249,345.269623,349.732422,-1.000000,0.000000,0.000000
482148607.081407,0.012772,-0.009918,-1.064087,0.011718,0.008134,0.000121,0.999931,0.000216,-0.011718,-0.000121,0.999967,0.008134,0.011719,-0.008132,0.999898,0.011718,-0.008134,-0.999898,-0.004821,-0.004622,-0.061289,0.004312,0.003293,-0.000249,345.269623,349.732422,-1.000000,0.000000,0.000000
482148607.097555,0.010818,-0.011841,-1.062149,0.011469,0.008074,0.000124,0.999934,0.000216,-0.011469,-0.000124,0.999967,0.008074,0.011470,-0.008072,0.999902,0.011469,-0.008074,-0.999902,0.000235,0.000185,-0.062247,0.001850,-0.005988,-0.002737,345.269623,349.732422,-1.000000,0.000000,0.000000
482148607.102767,0.008789,-0.009811,-1.060196,0.011307,0.008074,0.000098,0.999936,0.000190,-0.011306,-0.000098,0.999967,0.008074,0.011307,-0.008073,0.999904,0.011306,-0.008074,-0.999904,-0.001556,-0.000760,-0.062261,-0.001853,-0.002542,-0.001517,345.269623,349.732422,-1.000000,0.000000,0.000000
482148607.117966,0.007812,-0.010788,-1.062164,0.011287,0.008284,0.000117,0.999936,0.000211,-0.011286,-0.000117,0.999966,0.008283,0.011287,-0.008282,0.999902,0.011286,-0.008283,-0.999902,-0.000467,-0.003557,-0.062247,-0.001859,-0.001357,0.002178,345.269623,349.732422,-1.000000,0.000000,0.000000
482148607.121768,0.007812,-0.010788,-1.062164,0.011287,0.008284,0.000117,0.999936,0.000211,-0.011286,-0.000117,0.999966,0.008283,0.011287,-0.008282,0.999902,0.011286,-0.008283,-0.999902,-0.000467,-0.003557,-0.062247,-0.001859,-0.001357,0.002178,345.269623,349.732422,-1.000000,0.000000,0.000000
482148607.136064,0.008789,-0.008835,-1.063126,0.011095,0.008329,0.000080,0.999938,0.000172,-0.011095,-0.000080,0.999965,0.008329,0.011096,-0.008328,0.999904,0.011095,-0.008329,-0.999904,-0.002305,-0.001482,-0.060292,0.001861,-0.006006,-0.003968,345.269623,349.732422,-1.000000,0.000000,0.000000
482148607.142023,0.008789,-0.008835,-1.063126,0.011095,0.008329,0.000080,0.999938,0.000172,-0.011095,-0.000080,0.999965,0.008329,0.011096,-0.008328,0.999904,0.011095,-0.008329,-0.999904,-0.002305,-0.001482,-0.060292,0.001861,-0.006006,-0.003968,345.269623,349.732422,-1.000000,0.000000,0.000000
482148607.152418,0.010864,-0.012848,-1.063110,0.010907,0.008405,0.000058,0.999941,0.000149,-0.010906,-0.000058,0.999965,0.008405,0.010907,-0.008404,0.999905,0.010906,-0.008405,-0.999905,-0.003093,-0.002383,-0.062259,0.003108,0.003215,-0.006409,345.269623,349.732422,-1.000000,0.000000,0.000000
482148607.162386,0.009750,-0.008835,-1.062164,0.010948,0.008511,0.000042,0.999940,0.000135,-0.010947,-0.000042,0.999964,0.008511,0.010948,-0.008510,0.999904,0.010947,-0.008511,-0.999904,0.001794,-0.000369,-0.060262,0.011723,-0.002454,-0.001455,345.269623,349.732422,-1.000000,0.000000,0.000000
482148607.172436,0.009689,-0.006866,-1.061157,0.010948,0.008511,0.000042,0.999940,0.000135,-0.010947,-0.000042,0.999964,0.008511,0.010948,-0.008510,0.999904,0.010947,-0.008511,-0.999904,0.001794,-0.000369,-0.060262,0.011723,-0.002454,-0.001455,345.269623,349.732422,-1.000000,0.000000,0.000000
482148607.182431,0.010773,-0.009857,-1.061157,0.010751,0.008749,0.000115,0.999942,0.000209,-0.010751,-0.000115,0.999962,0.008749,0.010752,-0.008747,0.999904,0.010751,-0.008749,-0.999904,0.000114,-0.004099,-0.063206,0.008009,-0.004743,0.004680,345.269623,349.732422,-1.000000,0.000000,0.000000
482148607.195903,0.010757,-0.008835,-1.060181,0.010699,0.008810,0.000118,0.999943,0.000213,-0.010699,-0.000118,0.999961,0.008810,0.010700,-0.008808,0.999904,0.010699,-0.008810,-0.999904,-0.000948,-0.000025,-0.062260,0.008017,0.001007,0.002227,345.269623,349.732422,-1.000000,0.000000,0.000000
482148607.202002,0.008820,-0.010803,-1.061172,0.010699,0.008810,0.000118,0.999943,0.000213,-0.010699,-0.000118,0.999961,0.008810,0.010700,-0.008808,0.999904,0.010699,-0.008810,-0.999904,-0.000948,-0.000025,-0.062260,0.008017,0.001007,0.002227,345.269623,349.732422,-1.000000,0.000000,0.000000
482148607.212285,0.010773,-0.009842,-1.060181,0.010599,0.008760,0.000209,0.999944,0.000302,-0.010599,-0.000209,0.999962,0.008760,0.010601,-0.008758,0.999905,0.010599,-0.008760,-0.999905,0.000174,-0.001097,-0.061252,0.004300,-0.004766,0.005894,345.269623,349.732422,-1.000000,0.000000,0.000000
482148607.222653,0.010773,-0.009842,-1.060181,0.010543,0.008797,0.000206,0.999944,0.000299,-0.010542,-0.000206,0.999961,0.008797,0.010544,-0.008795,0.999906,0.010542,-0.008797,-0.999906,0.000215,-0.000038,-0.060275,0.001857,-0.003692,-0.001502,345.269623,349.732422,-1.000000,0.000000,0.000000
482148607.232455,0.012741,-0.008881,-1.060165,0.010543,0.008797,0.000206,0.999944,0.000299,-0.010542,-0.000206,0.999961,0.008797,0.010544,-0.008795,0.999906,0.010542,-0.008797,-0.999906,0.000215,-0.000038,-0.060275,0.001857,-0.003692,-0.001502,345.269623,349.732422,-1.000000,0.000000,0.000000
482148607.242885,0.010757,-0.009842,-1.059204,0.010467,0.008930,0.000255,0.999945,0.000349,-0.010466,-0.000255,0.999960,0.008930,0.010469,-0.008926,0.999905,0.010466,-0.008930,-0.999905,-0.001647,-0.001874,-0.061267,-0.000612,0.007855,0.000967,345.269623,349.732422,-1.000000,0.000000,0.000000
482148607.252283,0.007797,-0.009827,-1.064117,0.010465,0.008990,0.000312,0.999945,0.000406,-0.010465,-0.000312,0.999960,0.008990,0.010468,-0.008987,0.999905,0.010465,-0.008990,-0.999905,0.000308,-0.000852,-0.060276,0.005537,-0.003608,0.005901,345.269623,349.732422,-1.000000,0.000000,0.000000
482148607.265653,0.013748,-0.009933,-1.063095,0.010465,0.008990,0.000312,0.999945,0.000406,-0.010465,-0.000312,0.999960,0.008990,0.010468,-0.008987,0.999905,0.010465,-0.008990,-0.999905,0.000308,-0.000852,-0.060276,0.005537,-0.003608,0.005901,345.269623,349.732422,-1.000000,0.000000,0.000000
482148607.272186,0.012756,-0.010849,-1.056259,0.010441,0.009027,0.000306,0.999945,0.000400,-0.010441,-0.000306,0.999959,0.009027,0.010444,-0.009023,0.999905,0.010441,-0.009027,-0.999905,0.000317,-0.000815,-0.059299,0.001876,-0.002581,-0.006425,345.269623,349.732422,-1.000000,0.000000,0.000000
482148607.282589,0.007004,-0.016739,-1.063141,0.010355,0.009039,0.000226,0.999946,0.000320,-0.010355,-0.000226,0.999959,0.009039,0.010357,-0.009036,0.999906,0.010355,-0.009039,-0.999906,-0.002558,-0.000788,-0.064212,0.004337,0.003224,-0.003942,345.269623,349.732422,-1.000000,0.000000,0.000000
482148607.292505,0.012802,-0.010895,-1.063095,0.010484,0.009087,0.000274,0.999945,0.000369,-0.010483,-0.000274,0.999959,0.009086,0.010486,-0.009083,0.999904,0.010483,-0.009086,-0.999904,0.002273,-0.001763,-0.056355,0.000615,-0.002504,0.003418,345.269623,349.732422,-1.000000,0.000000,0.000000
482148607.302496,0.007690,-0.005829,-1.060181,0.010484,0.009087,0.000274,0.999945,0.000369,-0.010483,-0.000274,0.999959,0.009086,0.010486,-0.009083,0.999904,0.010483,-0.009086,-0.999904,0.002273,-0.001763,-0.056355,0.000615,-0.002504,0.003418,345.269623,349.732422,-1.000000,0.000000,0.000000
482148607.312507,0.009720,-0.007828,-1.060196,0.010380,0.009355,0.000260,0.999946,0.000357,-0.010379,-0.000260,0.999956,0.009355,0.010382,-0.009352,0.999902,0.010379,-0.009355,-0.999902,-0.003375,-0.007384,-0.063238,0.010507,0.002155,0.001009,345.269623,349.732422,-1.000000,0.000000,0.000000
482148607.323403,0.005936,-0.013718,-1.060211,0.010414,0.009466,0.000266,0.999946,0.000364,-0.010413,-0.000266,0.999955,0.009466,0.010416,-0.009463,0.999901,0.010413,-0.009466,-0.999901,0.002389,-0.001429,-0.063194,-0.003050,-0.003732,-0.001525,345.269623,349.732422,-1.000000,0.000000,0.000000
482148607.332322,0.005936,-0.013718,-1.060211,0.010414,0.009466,0.000266,0.999946,0.000364,-0.010413,-0.000266,0.999955,0.009466,0.010416,-0.009463,0.999901,0.010413,-0.009466,-0.999901,0.002389,-0.001429,-0.063194,-0.003050,-0.003732,-0.001525,345.269623,349.732422,-1.000000,0.000000,0.000000
482148607.342712,0.013779,-0.010910,-1.063095,0.010323,0.009355,0.000288,0.999947,0.000384,-0.010323,-0.000288,0.999956,0.009354,0.010326,-0.009351,0.999903,0.010323,-0.009354,-0.999903,-0.002632,0.003526,-0.060278,-0.001839,-0.000236,0.002180,345.269623,349.732422,-1.000000,0.000000,0.000000
482148607.352288,0.010635,-0.003891,-1.060165,0.010179,0.009532,0.000361,0.999948,0.000458,-0.010178,-0.000361,0.999955,0.009532,0.010182,-0.009527,0.999903,0.010178,-0.009532,-0.999903,-0.004243,-0.004186,-0.060308,0.001866,0.000930,0.002198,345.269623,349.732422,-1.000000,0.000000,0.000000
482148607.362673,0.013779,-0.010910,-1.063095,0.010179,0.009532,0.000361,0.999948,0.000458,-0.010178,-0.000361,0.999955,0.009532,0.010182,-0.009527,0.999903,0.010178,-0.009532,-0.999903,-0.004243,-0.004186,-0.060308,0.001866,0.000930,0.002198,345.269623,349.732422,-1.000000,0.000000,0.000000
482148607.372517,0.011703,-0.007874,-1.060181,0.010273,0.009606,0.000417,0.999947,0.000516,-0.010272,-0.000417,0.999954,0.009606,0.010277,-0.009601,0.999901,0.010272,-0.009606,-0.999901,0.003507,-0.001304,-0.063194,0.005560,0.002139,0.004679,345.269623,349.732422,-1.000000,0.000000,0.000000
482148607.382726,0.011765,-0.009903,-1.063110,0.010418,0.009544,0.000591,0.999946,0.000690,-0.010417,-0.000591,0.999954,0.009544,0.010423,-0.009537,0.999900,0.010417,-0.009544,-0.999900,0.003362,-0.001366,-0.063195,-0.003115,0.005622,0.013262,345.269623,349.732422,-1.000000,0.000000,0.000000
482148607.392859,0.005753,-0.006790,-1.062164,0.010418,0.009544,0.000591,0.999946,0.000690,-0.010417,-0.000591,0.999954,0.009544,0.010423,-0.009537,0.999900,0.010417,-0.009544,-0.999900,0.003362,-0.001366,-0.063195,-0.003115,0.005622,0.013262,345.269623,349.732422,-1.000000,0.000000,0.000000
482148607.402258,0.006897,-0.012741,-1.060211,0.010433,0.009587,0.000648,0.999945,0.000748,-0.010432,-0.000648,0.999954,0.009586,0.010439,-0.009579,0.999900,0.010432,-0.009586,-0.999900,0.003347,-0.001324,-0.063195,0.000619,0.000936,0.002192,345.269623,349.732422,-1.000000,0.000000,0.000000
482148607.412690,0.009903,-0.013840,-1.066071,0.010461,0.009434,0.000768,0.999945,0.000867,-0.010461,-0.000768,0.999955,0.009434,0.010468,-0.009425,0.999901,0.010461,-0.009434,-0.999901,0.001304,-0.000469,-0.063210,-0.001850,0.000911,0.000950,345.269623,349.732422,-1.000000,0.000000,0.000000
482148607.425600,0.010788,-0.009872,-1.063110,0.010341,0.009353,0.000713,0.999946,0.000810,-0.010341,-0.000713,0.999956,0.009352,0.010348,-0.009345,0.999903,0.010341,-0.009352,-0.999903,-0.004588,0.002562,-0.062262,-0.001839,0.003153,-0.005202,345.269623,349.732422,-1.000000,0.000000,0.000000
482148607.432206,0.010788,-0.009872,-1.063110,0.010341,0.009353,0.000713,0.999946,0.000810,-0.010341,-0.000713,0.999956,0.009352,0.010348,-0.009345,0.999903,0.010341,-0.009352,-0.999903,-0.004588,0.002562,-0.062262,-0.001839,0.003153,-0.005202,345.269623,349.732422,-1.000000,0.000000,0.000000
482148607.442293,0.011749,-0.008896,-1.063110,0.010189,0.009518,0.000763,0.999948,0.000859,-0.010188,-0.000763,0.999954,0.009518,0.010196,-0.009509,0.999903,0.010188,-0.009518,-0.999903,-0.000285,-0.004322,-0.066168,0.009272,0.000928,-0.002692,345.269623,349.732422,-1.000000,0.000000,0.000000
482148607.453441,0.011856,-0.012894,-1.065079,0.010189,0.009518,0.000763,0.999948,0.000859,-0.010188,-0.000763,0.999954,0.009518,0.010196,-0.009509,0.999903,0.010188,-0.009518,-0.999903,-0.000285,-0.004322,-0.066168,0.009272,0.000928,-0.002692,345.269623,349.732422,-1.000000,0.000000,0.000000
482148607.462333,0.007828,-0.010803,-1.063126,0.010196,0.009583,0.000712,0.999948,0.000809,-0.010196,-0.000712,0.999954,0.009582,0.010203,-0.009575,0.999902,0.010196,-0.009582,-0.999902,0.000592,-0.000290,-0.063208,0.008053,-0.001432,-0.007626,345.269623,349.732422,-1.000000,0.000000,0.000000
482148607.472951,0.006744,-0.006805,-1.062164,0.010221,0.009662,0.000694,0.999947,0.000792,-0.010220,-0.000694,0.999953,0.009661,0.010227,-0.009654,0.999901,0.010220,-0.009661,-0.999901,0.001636,-0.003232,-0.065178,-0.005536,-0.000295,0.000932,345.269623,349.732422,-1.000000,0.000000,0.000000
482148607.482708,0.005692,-0.003799,-1.060196,0.010207,0.009692,0.000715,0.999948,0.000814,-0.010206,-0.000715,0.999953,0.009692,0.010214,-0.009684,0.999901,0.010206,-0.009692,-0.999901,0.001650,-0.003202,-0.065178,0.006793,0.000958,0.002221,345.269623,349.732422,-1.000000,0.000000,0.000000
482148607.492666,0.009750,-0.008835,-1.061172,0.010207,0.009692,0.000715,0.999948,0.000814,-0.010206,-0.000715,0.999953,0.009692,0.010214,-0.009684,0.999901,0.010206,-0.009692,-0.999901,0.001650,-0.003202,-0.065178,0.006793,0.000958,0.002221,345.269623,349.732422,-1.000000,0.000000,0.000000
482148607.502429,0.009674,-0.006851,-1.059204,0.010029,0.009674,0.000770,0.999949,0.000867,-0.010029,-0.000770,0.999953,0.009674,0.010037,-0.009665,0.999903,0.010029,-0.009674,-0.999903,-0.003284,0.002868,-0.062261,-0.003077,-0.003775,-0.000294,345.269623,349.732422,-1.000000,0.000000,0.000000
482148607.521728,0.009674,-0.006851,-1.059204,0.010029,0.009674,0.000770,0.999949,0.000867,-0.010029,-0.000770,0.999953,0.009674,0.010037,-0.009665,0.999903,0.010029,-0.009674,-0.999903,-0.003284,0.002868,-0.062261,-0.003077,-0.003775,-0.000294,345.269623,349.732422,-1.000000,0.000000,0.000000
482148607.531664,0.008835,-0.010818,-1.063126,0.009825,0.009448,0.000919,0.999951,0.001012,-0.009825,-0.000919,0.999955,0.009448,0.009834,-0.009438,0.999907,0.009825,-0.009448,-0.999907,-0.000151,0.002597,-0.059297,-0.000662,0.000882,0.004649,345.269623,349.732422,-1.000000,0.000000,0.000000
482148607.544726,0.014633,-0.004974,-1.064056,0.009880,0.009416,0.000863,0.999951,0.000956,-0.009880,-0.000863,0.999955,0.009416,0.009888,-0.009407,0.999907,0.009880,-0.009416,-0.999907,0.001839,0.000550,-0.059297,0.003079,0.004262,-0.008870,345.269623,349.732422,-1.000000,0.000000,0.000000
482148607.555615,0.014633,-0.004974,-1.064056,0.009880,0.009416,0.000863,0.999951,0.000956,-0.009880,-0.000863,0.999955,0.009416,0.009888,-0.009407,0.999907,0.009880,-0.009416,-0.999907,0.001839,0.000550,-0.059297,0.003079,0.004262,-0.008870,345.269623,349.732422,-1.000000,0.000000,0.000000
482148607.561988,0.013840,-0.012924,-1.066040,0.009865,0.009480,0.000905,0.999951,0.000999,-0.009864,-0.000905,0.999955,0.009479,0.009873,-0.009470,0.999906,0.009864,-0.009479,-0.999906,-0.000022,-0.002377,-0.065188,-0.005601,0.003179,0.007092,345.269623,349.732422,-1.000000,0.000000,0.000000
482148607.571849,0.008896,-0.013794,-1.062164,0.009807,0.009490,0.000897,0.999951,0.000990,-0.009807,-0.000897,0.999955,0.009490,0.009816,-0.009481,0.999907,0.009807,-0.009490,-0.999907,-0.000972,-0.001329,-0.063219,0.004307,-0.003790,-0.005185,345.269623,349.732422,-1.000000,0.000000,0.000000
482148607.582825,0.011734,-0.008881,-1.062149,0.010036,0.009476,0.000992,0.999949,0.001087,-0.010035,-0.000992,0.999955,0.009475,0.010045,-0.009465,0.999905,0.010035,-0.009475,-0.999905,0.003805,-0.003449,-0.066135,0.005489,0.000980,0.008370,345.269623,349.732422,-1.000000,0.000000,0.000000
482148607.592506,0.006851,-0.009811,-1.065109,0.010036,0.009476,0.000992,0.999949,0.001087,-0.010035,-0.000992,0.999955,0.009475,0.010045,-0.009465,0.999905,0.010035,-0.009475,-0.999905,0.003805,-0.003449,-0.066135,0.005489,0.000980,0.008370,345.269623,349.732422,-1.000000,0.000000,0.000000
482148607.603427,0.011810,-0.012848,-1.059204,0.010028,0.009606,0.001043,0.999949,0.001139,-0.010027,-0.001043,0.999953,0.009606,0.010038,-0.009595,0.999904,0.010027,-0.009606,-0.999904,-0.001132,-0.004188,-0.062261,0.004294,0.002057,0.000980,345.269623,349.732422,-1.000000,0.000000,0.000000
482148607.614069,0.009766,-0.009827,-1.060196,0.010028,0.009606,0.001043,0.999949,0.001139,-0.010027,-0.001043,0.999953,0.009606,0.010038,-0.009595,0.999904,0.010027,-0.009606,-0.999904,-0.001132,-0.004188,-0.062261,0.004294,0.002057,0.000980,345.269623,349.732422,-1.000000,0.000000,0.000000
482148607.622373,0.008789,-0.008835,-1.064117,0.009923,0.009598,0.001068,0.999950,0.001163,-0.009923,-0.001068,0.999953,0.009597,0.009933,-0.009586,0.999905,0.009923,-0.009597,-0.999905,-0.003071,-0.000214,-0.065205,0.003053,-0.004891,0.000963,345.269623,349.732422,-1.000000,0.000000,0.000000
482148607.632458,0.011719,-0.007904,-1.063110,0.009943,0.009722,0.001113,0.999950,0.001209,-0.009943,-0.001113,0.999952,0.009722,0.009954,-0.009710,0.999903,0.009943,-0.009722,-0.999903,0.001867,-0.003126,-0.059301,0.007984,-0.002510,0.004682,345.269623,349.732422,-1.000000,0.000000,0.000000
482148607.643940,0.011719,-0.007904,-1.063110,0.009943,0.009722,0.001113,0.999950,0.001209,-0.009943,-0.001113,0.999952,0.009722,0.009954,-0.009710,0.999903,0.009943,-0.009722,-0.999903,0.001867,-0.003126,-0.059301,0.007984,-0.002510,0.004682,345.269623,349.732422,-1.000000,0.000000,0.000000
482148607.652416,0.008789,-0.010773,-1.056290,0.009915,0.009735,0.001227,0.999950,0.001323,-0.009914,-0.001227,0.999952,0.009735,0.009927,-0.009722,0.999903,0.009914,-0.009735,-0.999903,-0.000149,-0.000092,-0.060292,0.003066,0.000874,-0.000259,345.269623,349.732422,-1.000000,0.000000,0.000000
482148607.662071,0.006699,-0.004807,-1.062164,0.009840,0.009743,0.001153,0.999951,0.001248,-0.009840,-0.001153,0.999952,0.009743,0.009852,-0.009731,0.999904,0.009840,-0.009743,-0.999904,-0.001051,0.000908,-0.064213,0.003084,-0.001504,-0.007649,345.269623,349.732422,-1.000000,0.000000,0.000000
482148607.672813,0.010788,-0.009872,-1.063110,0.009820,0.009670,0.001082,0.999951,0.001177,-0.009820,-0.001082,0.999953,0.009670,0.009831,-0.009659,0.999905,0.009820,-0.009670,-0.999905,-0.001031,-0.001103,-0.056385,0.003059,-0.003774,-0.002728,345.269623,349.732422,-1.000000,0.000000,0.000000
482148607.682942,0.011749,-0.009872,-1.060181,0.009820,0.009670,0.001082,0.999951,0.001177,-0.009820,-0.001082,0.999953,0.009670,0.009831,-0.009659,0.999905,0.009820,-0.009670,-0.999905,-0.001031,-0.001103,-0.056385,0.003059,-0.003774,-0.002728,345.269623,349.732422,-1.000000,0.000000,0.000000
482148607.692493,0.009766,-0.008850,-1.064117,0.009719,0.009558,0.001146,0.999952,0.001238,-0.009719,-0.001145,0.999954,0.009558,0.009730,-0.009546,0.999907,0.009719,-0.009558,-0.999907,-0.003020,0.004751,-0.062257,0.000546,-0.006054,0.004643,345.269623,349.732422,-1.000000,0.000000,0.000000
482148607.702648,0.012726,-0.007919,-1.063095,0.009748,0.009533,0.001122,0.999952,0.001215,-0.009748,-0.001122,0.999954,0.009533,0.009759,-0.009522,0.999907,0.009748,-0.009533,-0.999907,0.002001,-0.000339,-0.060274,-0.000684,-0.000291,0.003415,345.269623,349.732422,-1.000000,0.000000,0.000000
482148607.712543,0.009811,-0.010834,-1.064117,0.009748,0.009533,0.001122,0.999952,0.001215,-0.009748,-0.001122,0.999954,0.009533,0.009759,-0.009522,0.999907,0.009748,-0.009533,-0.999907,0.002001,-0.000339,-0.060274,-0.000684,-0.000291,0.003415,345.269623,349.732422,-1.000000,0.000000,0.000000
482148607.723335,0.015671,-0.006027,-1.066010,0.009734,0.009563,0.001149,0.999952,0.001242,-0.009734,-0.001149,0.999954,0.009563,0.009745,-0.009551,0.999907,0.009734,-0.009563,-0.999907,0.002016,-0.000310,-0.060274,0.003027,-0.002606,-0.000265,345.269623,349.732422,-1.000000,0.000000,0.000000
482148607.732250,0.010742,-0.008835,-1.059204,0.009705,0.009467,0.001083,0.999952,0.001175,-0.009705,-0.001083,0.999955,0.009467,0.009715,-0.009456,0.999908,0.009705,-0.009467,-0.999908,0.003021,0.001547,-0.063187,-0.001909,-0.004974,-0.003984,345.269623,349.732422,-1.000000,0.000000,0.000000
482148607.741789,0.010742,-0.008835,-1.059204,0.009705,0.009467,0.001083,0.999952,0.001175,-0.009705,-0.001083,0.999955,0.009467,0.009715,-0.009456,0.999908,0.009705,-0.009467,-0.999908,0.003021,0.001547,-0.063187,-0.001909,-0.004974,-0.003984,345.269623,349.732422,-1.000000,0.000000,0.000000
482148607.752348,0.011688,-0.006927,-1.063095,0.009647,0.009518,0.001117,0.999953,0.001208,-0.009646,-0.001116,0.999954,0.009518,0.009657,-0.009507,0.999908,0.009646,-0.009518,-0.999908,0.000165,-0.001316,-0.064209,0.001779,-0.002599,0.000960,345.269623,349.732422,-1.000000,0.000000,0.000000
482148607.762516,0.011780,-0.011856,-1.059204,0.009718,0.009376,0.001134,0.999952,0.001225,-0.009717,-0.001134,0.999955,0.009376,0.009728,-0.009364,0.999909,0.009717,-0.009376,-0.999909,0.001025,0.000541,-0.059295,-0.004416,-0.006072,0.002157,345.269623,349.732422,-1.000000,0.000000,0.000000
482148607.772456,0.008743,-0.007812,-1.060196,0.009718,0.009376,0.001134,0.999952,0.001225,-0.009717,-0.001134,0.999955,0.009376,0.009728,-0.009364,0.999909,0.009717,-0.009376,-0.999909,0.001025,0.000541,-0.059295,-0.004416,-0.006072,0.002157,345.269623,349.732422,-1.000000,0.000000,0.000000
482148607.782235,0.014740,-0.008942,-1.064072,0.009700,0.009323,0.001155,0.999952,0.001245,-0.009699,-0.001155,0.999956,0.009323,0.009710,-0.009311,0.999910,0.009699,-0.009323,-0.999910,0.001989,0.002395,-0.063186,0.001727,-0.002526,0.005884,345.269623,349.732422,-1.000000,0.000000,0.000000
482148607.792613,0.008820,-0.010788,-1.060196,0.009726,0.009412,0.001197,0.999952,0.001289,-0.009726,-0.001197,0.999955,0.009412,0.009737,-0.009400,0.999908,0.009726,-0.009412,-0.999908,-0.000982,0.001600,-0.060288,0.006671,-0.003678,0.002211,345.269623,349.732422,-1.000000,0.000000,0.000000
482148607.803618,0.006836,-0.008804,-1.065109,0.009726,0.009412,0.001197,0.999952,0.001289,-0.009726,-0.001197,0.999955,0.009412,0.009737,-0.009400,0.999908,0.009726,-0.009412,-0.999908,-0.000982,0.001600,-0.060288,0.006671,-0.003678,0.002211,345.269623,349.732422,-1.000000,0.000000,0.000000
482148607.812643,0.012894,-0.014877,-1.063095,0.009701,0.009423,0.001170,0.999952,0.001262,-0.009700,-0.001170,0.999955,0.009423,0.009712,-0.009411,0.999909,0.009700,-0.009423,-0.999909,-0.000957,0.001611,-0.060287,0.001758,-0.004920,-0.003968,345.269623,349.732422,-1.000000,0.000000,0.000000
482148607.822476,0.008789,-0.009811,-1.060196,0.009751,0.009511,0.001176,0.999952,0.001269,-0.009750,-0.001176,0.999954,0.009511,0.009762,-0.009499,0.999907,0.009750,-0.009511,-0.999907,-0.000931,-0.001277,-0.060289,0.006698,-0.002584,-0.006404,345.269623,349.732422,-1.000000,0.000000,0.000000
482148607.833216,0.012772,-0.009918,-1.063095,0.009751,0.009511,0.001176,0.999952,0.001269,-0.009750,-0.001176,0.999954,0.009511,0.009762,-0.009499,0.999907,0.009750,-0.009511,-0.999907,-0.000931,-0.001277,-0.060289,0.006698,-0.002584,-0.006404,345.269623,349.732422,-1.000000,0.000000,0.000000
482148607.842581,0.012726,-0.008881,-1.059189,0.009663,0.009464,0.001192,0.999952,0.001283,-0.009662,-0.001192,0.999955,0.009464,0.009674,-0.009452,0.999909,0.009662,-0.009464,-0.999909,-0.002827,0.000660,-0.065201,-0.004435,0.000859,0.002168,345.269623,349.732422,-1.000000,0.000000,0.000000
482148607.852697,0.009842,-0.012817,-1.061172,0.009659,0.009685,0.001228,0.999952,0.001321,-0.009658,-0.001227,0.999952,0.009685,0.009671,-0.009673,0.999906,0.009658,-0.009685,-0.999906,-0.000869,-0.000126,-0.060289,0.006700,-0.001409,-0.002709,345.269623,349.732422,-1.000000,0.000000,0.000000
482148607.864164,0.009735,-0.007858,-1.063126,0.009697,0.009711,0.001188,0.999952,0.001282,-0.009697,-0.001188,0.999952,0.009711,0.009709,-0.009699,0.999906,0.009697,-0.009711,-0.999906,0.003075,-0.000207,-0.063189,-0.000698,-0.002616,-0.003976,345.269623,349.732422,-1.000000,0.000000,0.000000
482148607.871804,0.009735,-0.007858,-1.063126,0.009697,0.009711,0.001188,0.999952,0.001282,-0.009697,-0.001188,0.999952,0.009711,0.009709,-0.009699,0.999906,0.009697,-0.009711,-0.999906,0.003075,-0.000207,-0.063189,-0.000698,-0.002616,-0.003976,345.269623,349.732422,-1.000000,0.000000,0.000000
482148607.882565,0.010773,-0.009857,-1.062149,0.009800,0.009770,0.001266,0.999951,0.001361,-0.009799,-0.001266,0.999951,0.009770,0.009812,-0.009757,0.999904,0.009799,-0.009770,-0.999904,0.002927,0.000890,-0.059285,0.010352,0.001054,0.009621,345.269623,349.732422,-1.000000,0.000000,0.000000
482148607.892414,0.009811,-0.010834,-1.064117,0.009802,0.009851,0.001287,0.999951,0.001384,-0.009802,-0.001287,0.999951,0.009851,0.009815,-0.009838,0.999903,0.009802,-0.009851,-0.999903,0.000040,-0.002967,-0.061269,0.000513,0.002094,0.004654,345.269623,349.732422,-1.000000,0.000000,0.000000
482148607.902443,0.010803,-0.012787,-1.055283,0.009802,0.009851,0.001287,0.999951,0.001384,-0.009802,-0.001287,0.999951,0.009851,0.009815,-0.009838,0.999903,0.009802,-0.009851,-0.999903,0.000040,-0.002967,-0.061269,0.000513,0.002094,0.004654,345.269623,349.732422,-1.000000,0.000000,0.000000
482148607.912362,0.008835,-0.011795,-1.060196,0.009813,0.009767,0.001354,0.999951,0.001449,-0.009812,-0.001354,0.999951,0.009766,0.009826,-0.009753,0.999904,0.009812,-0.009766,-0.999904,0.000960,-0.000091,-0.062245,0.001735,-0.002528,0.003421,345.269623,349.732422,-1.000000,0.000000,0.000000
482148607.922578,0.013748,-0.009933,-1.063095,0.009803,0.009781,0.001357,0.999951,0.001453,-0.009802,-0.001357,0.999951,0.009780,0.009816,-0.009767,0.999904,0.009802,-0.009780,-0.999904,0.000009,-0.001053,-0.064213,0.004212,0.000930,0.000976,345.269623,349.732422,-1.000000,0.000000,0.000000
482148607.932342,0.010773,-0.009857,-1.062149,0.009803,0.009781,0.001357,0.999951,0.001453,-0.009802,-0.001357,0.999951,0.009780,0.009816,-0.009767,0.999904,0.009802,-0.009780,-0.999904,0.000009,-0.001053,-0.064213,0.004212,0.000930,0.000976,345.269623,349.732422,-1.000000,0.000000,0.000000
482148607.943161,0.014664,-0.006958,-1.061111,0.009879,0.009940,0.001358,0.999950,0.001456,-0.009878,-0.001358,0.999950,0.009940,0.009892,-0.009926,0.999902,0.009878,-0.009940,-0.999902,-0.001043,-0.001855,-0.060294,-0.001914,-0.001492,-0.006442,345.269623,349.732422,-1.000000,0.000000,0.000000
482148607.952185,0.006821,-0.008789,-1.064133,0.009882,0.009938,0.001342,0.999950,0.001440,-0.009881,-0.001342,0.999950,0.009938,0.009895,-0.009924,0.999902,0.009881,-0.009938,-0.999902,0.003867,0.000004,-0.063193,0.003004,-0.004875,-0.002732,345.269623,349.732422,-1.000000,0.000000,0.000000
482148607.961832,0.006821,-0.008789,-1.064133,0.009882,0.009938,0.001342,0.999950,0.001440,-0.009881,-0.001342,0.999950,0.009938,0.009895,-0.009924,0.999902,0.009881,-0.009938,-0.999902,0.003867,0.000004,-0.063193,0.003004,-0.004875,-0.002732,345.269623,349.732422,-1.000000,0.000000,0.000000
482148607.972409,0.009781,-0.009857,-1.064117,0.009839,0.009934,0.001379,0.999951,0.001476,-0.009838,-0.001379,0.999950,0.009934,0.009852,-0.009920,0.999902,0.009838,-0.009934,-0.999902,0.000935,0.000076,-0.062247,0.004223,0.000941,0.000976,345.269623,349.732422,-1.000000,0.000000,0.000000
482148607.981876,0.005829,-0.008774,-1.063141,0.009918,0.009853,0.001405,0.999950,0.001503,-0.009918,-0.001405,0.999950,0.009852,0.009932,-0.009838,0.999902,0.009918,-0.009852,-0.999902,0.004746,0.002894,-0.061209,-0.004433,-0.006019,0.002156,345.269623,349.732422,-1.000000,0.000000,0.000000
482148607.996482,0.009705,-0.006882,-1.063110,0.009785,0.009905,0.001466,0.999951,0.001563,-0.009784,-0.001466,0.999950,0.009905,0.009799,-0.009890,0.999903,0.009784,-0.009905,-0.999903,-0.000003,0.000047,-0.064214,0.006650,0.003298,0.004684,345.269623,349.732422,-1.000000,0.000000,0.000000
482148608.002236,0.009705,-0.006882,-1.063110,0.009785,0.009905,0.001466,0.999951,0.001563,-0.009784,-0.001466,0.999950,0.009905,0.009799,-0.009890,0.999903,0.009784,-0.009905,-0.999903,-0.000003,0.000047,-0.064214,0.006650,0.003298,0.004684,345.269623,349.732422,-1.000000,0.000000,0.000000
482148608.012527,0.012802,-0.011887,-1.062134,0.009700,0.009850,0.001458,0.999952,0.001554,-0.009699,-0.001458,0.999950,0.009850,0.009714,-0.009835,0.999904,0.009699,-0.009850,-0.999904,-0.003870,0.001076,-0.063236,-0.003201,-0.000321,-0.002753,345.269623,349.732422,-1.000000,0.000000,0.000000
482148608.022893,0.008911,-0.014786,-1.062164,0.009818,0.009928,0.001512,0.999951,0.001609,-0.009817,-0.001512,0.999950,0.009928,0.009833,-0.009913,0.999903,0.009817,-0.009928,-0.999903,-0.000112,0.003046,-0.063208,0.002940,0.005553,0.003439,345.269623,349.732422,-1.000000,0.000000,0.000000
482148608.032622,0.011810,-0.011887,-1.064102,0.009818,0.009928,0.001512,0.999951,0.001609,-0.009817,-0.001512,0.999950,0.009928,0.009833,-0.009913,0.999903,0.009817,-0.009928,-0.999903,-0.000112,0.003046,-0.063208,0.002940,0.005553,0.003439,345.269623,349.732422,-1.000000,0.000000,0.000000
482148608.042431,0.008759,-0.006897,-1.068024,0.009914,0.009966,0.001527,0.999950,0.001626,-0.009913,-0.001527,0.999949,0.009966,0.009929,-0.009950,0.999901,0.009913,-0.009966,-0.999901,0.002889,-0.001921,-0.062233,-0.000757,0.006703,0.004655,345.269623,349.732422,-1.000000,0.000000,0.000000
482148608.052401,0.007782,-0.009796,-1.060196,0.009836,0.010068,0.001444,0.999950,0.001543,-0.009836,-0.001444,0.999948,0.010068,0.009851,-0.010053,0.999901,0.009836,-0.010068,-0.999901,-0.000925,-0.004718,-0.062263,0.000514,-0.001431,-0.001507,345.269623,349.732422,-1.000000,0.000000,0.000000
482148608.062163,0.007782,-0.009796,-1.060196,0.009836,0.010068,0.001444,0.999950,0.001543,-0.009836,-0.001444,0.999948,0.010068,0.009851,-0.010053,0.999901,0.009836,-0.010068,-0.999901,-0.000925,-0.004718,-0.062263,0.000514,-0.001431,-0.001507,345.269623,349.732422,-1.000000,0.000000,0.000000
482148608.074213,0.010803,-0.010834,-1.061157,0.009867,0.010139,0.001441,0.999950,0.001541,-0.009867,-0.001441,0.999948,0.010139,0.009882,-0.010124,0.999900,0.009867,-0.010139,-0.999900,0.001944,-0.001748,-0.064202,0.006668,0.003290,0.004684,345.269623,349.732422,-1.000000,0.000000,0.000000
482148608.082321,0.010803,-0.010834,-1.061157,0.009750,0.010139,0.001472,0.999951,0.001570,-0.009749,-0.001472,0.999947,0.010139,0.009765,-0.010124,0.999901,0.009749,-0.010139,-0.999901,-0.001967,0.000343,-0.060295,0.006647,-0.001361,0.003445,345.269623,349.732422,-1.000000,0.000000,0.000000
482148608.092727,0.009766,-0.007889,-1.068039,0.009750,0.010139,0.001472,0.999951,0.001570,-0.009749,-0.001472,0.999947,0.010139,0.009765,-0.010124,0.999901,0.009749,-0.010139,-0.999901,-0.001967,0.000343,-0.060295,0.006647,-0.001361,0.003445,345.269623,349.732422,-1.000000,0.000000,0.000000
482148608.102254,0.009811,-0.010834,-1.063126,0.009732,0.010040,0.001481,0.999951,0.001578,-0.009731,-0.001481,0.999949,0.010040,0.009747,-0.010025,0.999902,0.009731,-0.010040,-0.999902,0.001011,0.003113,-0.067130,-0.002001,-0.000276,0.002176,345.269623,349.732422,-1.000000,0.000000,0.000000
482148608.116537,0.007935,-0.013824,-1.067062,0.009702,0.010043,0.001529,0.999952,0.001626,-0.009701,-0.001529,0.999948,0.010042,0.009717,-0.010027,0.999902,0.009701,-0.010042,-0.999902,0.000064,0.002154,-0.068136,0.005379,0.002106,0.004676,345.269623,349.732422,-1.000000,0.000000,0.000000
482148608.128322,0.010818,-0.011826,-1.060181,0.009689,0.010069,0.001610,0.999952,0.001708,-0.009688,-0.001610,0.999948,0.010069,0.009705,-0.010053,0.999902,0.009688,-0.010069,-0.999902,0.000123,-0.000765,-0.063223,0.004129,-0.001328,0.009589,345.269623,349.732422,-1.000000,0.000000,0.000000
482148608.132708,0.010818,-0.011826,-1.060181,0.009689,0.010069,0.001610,0.999952,0.001708,-0.009688,-0.001610,0.999948,0.010069,0.009705,-0.010053,0.999902,0.009688,-0.010069,-0.999902,0.000123,-0.000765,-0.063223,0.004129,-0.001328,0.009589,345.269623,349.732422,-1.000000,0.000000,0.000000
482148608.142458,0.013702,-0.007935,-1.063095,0.009740,0.010153,0.001629,0.999951,0.001728,-0.009739,-0.001629,0.999947,0.010152,0.009756,-0.010136,0.999901,0.009739,-0.010152,-0.999901,-0.001805,-0.003672,-0.067161,0.001712,0.006643,-0.000258,345.269623,349.732422,-1.000000,0.000000,0.000000
482148608.153822,0.012741,-0.008896,-1.061142,0.009769,0.010160,0.001635,0.999951,0.001734,-0.009768,-0.001634,0.999947,0.010160,0.009785,-0.010143,0.999901,0.009768,-0.010160,-0.999901,0.001035,0.001264,-0.067146,0.002002,0.000971,-0.000038,345.269623,349.732422,-1.000000,0.000000,0.000000
482148608.162444,0.008820,-0.010803,-1.062164,0.009769,0.010160,0.001635,0.999951,0.001734,-0.009768,-0.001634,0.999947,0.010160,0.009785,-0.010143,0.999901,0.009768,-0.010160,-0.999901,0.001035,0.001264,-0.067146,0.002002,0.000971,-0.000038,345.269623,349.732422,-1.000000,0.000000,0.000000
482148608.172487,0.012756,-0.009903,-1.061142,0.009835,0.010213,0.001698,0.999950,0.001799,-0.009834,-0.001698,0.999946,0.010212,0.009852,-0.010195,0.999900,0.009834,-0.010212,-0.999900,0.003869,0.002278,-0.063196,0.000767,-0.000189,-0.000046,345.269623,349.732422,-1.000000,0.000000,0.000000
482148608.183152,0.012756,-0.009903,-1.061142,0.009835,0.010213,0.001698,0.999950,0.001799,-0.009834,-0.001698,0.999946,0.010212,0.009852,-0.010195,0.999900,0.009834,-0.010212,-0.999900,0.003869,0.002278,-0.063196,0.000767,-0.000189,-0.000046,345.269623,349.732422,-1.000000,0.000000,0.000000
482148608.197006,0.012741,-0.008896,-1.062134,0.009882,0.010225,0.001721,0.999950,0.001822,-0.009881,-0.001721,0.999946,0.010225,0.009899,-0.010208,0.999899,0.009881,-0.010225,-0.999899,0.002860,0.001329,-0.061243,0.005686,0.001034,0.003672,345.269623,349.732422,-1.000000,0.000000,0.000000
482148608.213605,0.009811,-0.009888,-1.067062,0.009865,0.010268,0.001766,0.999950,0.001867,-0.009864,-0.001766,0.999946,0.010268,0.009883,-0.010250,0.999899,0.009864,-0.010268,-0.999899,0.002877,0.001372,-0.062235,0.003236,-0.001342,-0.002499,345.269623,349.732422,-1.000000,0.000000,0.000000
482148608.267196,0.010712,-0.006897,-1.063095,0.009876,0.010139,0.001902,0.999949,0.002002,-0.009876,-0.001902,0.999947,0.010139,0.009895,-0.010120,0.999900,0.009876,-0.010139,-0.999900,-0.002155,0.003288,-0.063211,0.000746,-0.003630,0.002410,345.269623,349.732422,-1.000000,0.000000,0.000000
482148608.278623,0.007767,-0.008789,-1.060196,0.009831,0.010009,0.001896,0.999950,0.001994,-0.009831,-0.001896,0.999948,0.010009,0.009850,-0.009989,0.999902,0.009831,-0.010009,-0.999902,-0.000095,0.003096,-0.067146,-0.007882,-0.003713,-0.000091,345.269623,349.732422,-1.000000,0.000000,0.000000
482148608.282330,0.010727,-0.007858,-1.062149,0.009831,0.010009,0.001896,0.999950,0.001994,-0.009831,-0.001896,0.999948,0.010009,0.009850,-0.009989,0.999902,0.009831,-0.010009,-0.999902,-0.000095,0.003096,-0.067146,-0.007882,-0.003713,-0.000091,345.269623,349.732422,-1.000000,0.000000,0.000000
482148608.292399,0.009781,-0.010803,-1.058243,0.009819,0.010052,0.001901,0.999950,0.002000,-0.009818,-0.001901,0.999948,0.010052,0.009838,-0.010033,0.999901,0.009818,-0.010052,-0.999901,0.000893,0.003155,-0.063194,0.000777,-0.000263,-0.008664,345.269623,349.732422,-1.000000,0.000000,0.000000
482148608.314113,0.009949,-0.016800,-1.063126,0.009727,0.009952,0.002020,0.999950,0.002116,-0.009727,-0.002020,0.999948,0.009952,0.009747,-0.009932,0.999903,0.009727,-0.009952,-0.999903,0.001000,0.002093,-0.062246,0.001950,-0.000110,0.008577,345.269623,349.732422,-1.000000,0.000000,0.000000
482148608.322386,0.009949,-0.016800,-1.063126,0.009727,0.009952,0.002020,0.999950,0.002116,-0.009727,-0.002020,0.999948,0.009952,0.009747,-0.009932,0.999903,0.009727,-0.009952,-0.999903,0.001000,0.002093,-0.062246,0.001950,-0.000110,0.008577,345.269623,349.732422,-1.000000,0.000000,0.000000
482148608.337061,0.008774,-0.008820,-1.061172,0.009716,0.009976,0.002025,0.999951,0.002122,-0.009715,-0.002025,0.999948,0.009976,0.009736,-0.009956,0.999903,0.009715,-0.009976,-0.999903,0.000066,-0.000827,-0.058340,0.001969,-0.003626,0.002416,345.269623,349.732422,-1.000000,0.000000,0.000000
482148608.341930,0.008774,-0.008820,-1.061172,0.009736,0.010114,0.002120,0.999950,0.002218,-0.009735,-0.002120,0.999947,0.010114,0.009757,-0.010093,0.999901,0.009735,-0.010114,-0.999901,0.000214,-0.006686,-0.063224,-0.000478,-0.004830,-0.001290,345.269623,349.732422,-1.000000,0.000000,0.000000
482148608.352409,0.007721,-0.006851,-1.063110,0.009736,0.010114,0.002120,0.999950,0.002218,-0.009735,-0.002120,0.999947,0.010114,0.009757,-0.010093,0.999901,0.009735,-0.010114,-0.999901,0.000214,-0.006686,-0.063224,-0.000478,-0.004830,-0.001290,345.269623,349.732422,-1.000000,0.000000,0.000000
482148608.367439,0.009857,-0.012833,-1.064117,0.009785,0.010117,0.002108,0.999950,0.002207,-0.009784,-0.002108,0.999947,0.010117,0.009806,-0.010096,0.999901,0.009784,-0.010117,-0.999901,0.000012,-0.000701,-0.061272,0.000761,0.003251,-0.002503,345.269623,349.732422,-1.000000,0.000000,0.000000
482148608.371724,0.010818,-0.009903,-1.067047,0.009692,0.009997,0.002144,0.999951,0.002240,-0.009691,-0.002144,0.999948,0.009997,0.009713,-0.009976,0.999903,0.009691,-0.009997,-0.999903,-0.001970,0.003146,-0.063207,0.003205,-0.001313,0.002425,345.269623,349.732422,-1.000000,0.000000,0.000000
482148608.389451,0.009750,-0.009827,-1.058243,0.009673,0.009999,0.002191,0.999951,0.002288,-0.009672,-0.002191,0.999948,0.009998,0.009695,-0.009977,0.999903,0.009672,-0.009998,-0.999903,-0.001951,0.003147,-0.063207,0.000726,0.001010,0.006111,345.269623,349.732422,-1.000000,0.000000,0.000000
482148608.391424,0.007812,-0.008850,-1.067062,0.009673,0.009999,0.002191,0.999951,0.002288,-0.009672,-0.002191,0.999948,0.009998,0.009695,-0.009977,0.999903,0.009672,-0.009998,-0.999903,-0.001951,0.003147,-0.063207,0.000726,0.001010,0.006111,345.269623,349.732422,-1.000000,0.000000,0.000000
482148608.403195,0.010834,-0.010864,-1.065079,0.009670,0.009968,0.002196,0.999951,0.002293,-0.009669,-0.002196,0.999948,0.009967,0.009692,-0.009946,0.999904,0.009669,-0.009967,-0.999904,0.001149,0.000064,-0.067144,-0.002960,-0.001357,0.002397,345.269623,349.732422,-1.000000,0.000000,0.000000
482148608.419425,0.010834,-0.010864,-1.065079,0.009670,0.009968,0.002196,0.999951,0.002293,-0.009669,-0.002196,0.999948,0.009967,0.009692,-0.009946,0.999904,0.009669,-0.009967,-0.999904,0.001149,0.000064,-0.067144,-0.002960,-0.001357,0.002397,345.269623,349.732422,-1.000000,0.000000,0.000000
482148608.421413,0.012833,-0.011917,-1.065063,0.009693,0.009955,0.002178,0.999950,0.002274,-0.009692,-0.002178,0.999948,0.009955,0.009714,-0.009934,0.999904,0.009692,-0.009955,-0.999904,0.000058,0.000129,-0.058339,-0.000485,0.005568,-0.000043,345.269623,349.732422,-1.000000,0.000000,0.000000
482148608.439563,0.012756,-0.008911,-1.063095,0.009687,0.009956,0.002267,0.999950,0.002363,-0.009686,-0.002267,0.999948,0.009956,0.009709,-0.009933,0.999904,0.009686,-0.009956,-0.999904,0.001148,-0.000909,-0.065175,0.004427,0.004498,0.006133,345.269623,349.732422,-1.000000,0.000000,0.000000
482148608.441344,0.012756,-0.008911,-1.063095,0.009687,0.009956,0.002267,0.999950,0.002363,-0.009686,-0.002267,0.999948,0.009956,0.009709,-0.009933,0.999904,0.009686,-0.009956,-0.999904,0.001148,-0.000909,-0.065175,0.004427,0.004498,0.006133,345.269623,349.732422,-1.000000,0.000000,0.000000
482148608.452534,0.007812,-0.010788,-1.062164,0.009720,0.009999,0.002302,0.999950,0.002399,-0.009719,-0.002302,0.999947,0.009998,0.009743,-0.009976,0.999903,0.009719,-0.009998,-0.999903,0.003113,-0.001919,-0.065161,-0.001717,-0.002534,-0.001293,345.269623,349.732422,-1.000000,0.000000,0.000000
482148608.468711,0.008820,-0.010803,-1.061172,0.009725,0.010004,0.002342,0.999950,0.002439,-0.009724,-0.002342,0.999947,0.010004,0.009748,-0.009980,0.999903,0.009724,-0.010004,-0.999903,0.003032,0.001092,-0.063192,0.001999,-0.001392,-0.006198,345.269623,349.732422,-1.000000,0.000000,0.000000
482148608.475698,0.008820,-0.010803,-1.061172,0.009725,0.010004,0.002342,0.999950,0.002439,-0.009724,-0.002342,0.999947,0.010004,0.009748,-0.009980,0.999903,0.009724,-0.010004,-0.999903,0.003032,0.001092,-0.063192,0.001999,-0.001392,-0.006198,345.269623,349.732422,-1.000000,0.000000,0.000000
482148608.492364,0.007782,-0.009796,-1.060196,0.009756,0.009963,0.002336,0.999949,0.002433,-0.009756,-0.002336,0.999948,0.009963,0.009780,-0.009940,0.999903,0.009756,-0.009963,-0.999903,0.003000,0.001052,-0.063192,-0.007882,0.002044,-0.001313,345.269623,349.732422,-1.000000,0.000000,0.000000
482148608.503489,0.009888,-0.012863,-1.067062,0.009822,0.009982,0.002479,0.999948,0.002577,-0.009822,-0.002479,0.999947,0.009982,0.009847,-0.009957,0.999902,0.009822,-0.009982,-0.999902,0.001974,-0.001890,-0.062247,-0.001737,0.006769,0.006108,345.269623,349.732422,-1.000000,0.000000,0.000000
482148608.519015,0.009888,-0.012863,-1.067062,0.009802,0.009994,0.002569,0.999948,0.002666,-0.009801,-0.002569,0.999947,0.009993,0.009828,-0.009968,0.999902,0.009801,-0.009993,-0.999902,-0.000982,-0.000810,-0.061270,0.001953,-0.000115,0.008576,345.269623,349.732422,-1.000000,0.000000,0.000000
482148608.521601,0.010803,-0.009888,-1.065079,0.009708,0.009908,0.002575,0.999949,0.002671,-0.009708,-0.002575,0.999948,0.009908,0.009734,-0.009882,0.999904,0.009708,-0.009908,-0.999904,-0.001926,0.000111,-0.060292,-0.005424,-0.001390,0.001154,345.269623,349.732422,-1.000000,0.000000,0.000000
482148608.532392,0.010803,-0.008896,-1.067047,0.009731,0.009904,0.002623,0.999949,0.002719,-0.009730,-0.002623,0.999948,0.009903,0.009756,-0.009877,0.999904,0.009730,-0.009903,-0.999904,0.000158,-0.002960,-0.067159,-0.004192,0.000938,0.002395,345.269623,349.732422,-1.000000,0.000000,0.000000
482148608.553708,0.004913,-0.012726,-1.062195,0.009731,0.009904,0.002623,0.999949,0.002719,-0.009730,-0.002623,0.999948,0.009903,0.009756,-0.009877,0.999904,0.009730,-0.009903,-0.999904,0.000158,-0.002960,-0.067159,-0.004192,0.000938,0.002395,345.269623,349.732422,-1.000000,0.000000,0.000000
482148608.575258,0.008835,-0.011810,-1.062164,0.009646,0.009996,0.002632,0.999950,0.002729,-0.009646,-0.002632,0.999947,0.009996,0.009673,-0.009970,0.999904,0.009646,-0.009996,-0.999904,0.001157,0.001100,-0.067144,0.004449,-0.002495,-0.001265,345.269623,349.732422,-1.000000,0.000000,0.000000
482148608.582356,0.011703,-0.007889,-1.061157,0.009543,0.009890,0.002686,0.999951,0.002781,-0.009543,-0.002686,0.999947,0.009890,0.009570,-0.009864,0.999906,0.009543,-0.009890,-0.999906,0.001138,0.004015,-0.060260,-0.006684,0.002124,0.008541,345.269623,349.732422,-1.000000,0.000000,0.000000
482148608.603296,0.008789,-0.009827,-1.062164,0.009546,0.009885,0.002656,0.999951,0.002750,-0.009545,-0.002656,0.999948,0.009885,0.009572,-0.009859,0.999906,0.009545,-0.009885,-0.999906,-0.000710,-0.001926,-0.062259,-0.004164,0.002004,-0.007452,345.269623,349.732422,-1.000000,0.000000,0.000000
482148608.612080,0.010834,-0.011856,-1.064102,0.009558,0.009794,0.002745,0.999950,0.002838,-0.009558,-0.002744,0.999948,0.009794,0.009585,-0.009767,0.999906,0.009558,-0.009794,-0.999906,0.002146,0.001905,-0.061251,0.009344,-0.000071,0.008610,345.269623,349.732422,-1.000000,0.000000,0.000000
482148608.631770,0.007797,-0.009827,-1.063126,0.009539,0.009784,0.002762,0.999950,0.002855,-0.009538,-0.002762,0.999948,0.009784,0.009566,-0.009757,0.999907,0.009538,-0.009784,-0.999907,0.001189,0.001926,-0.062242,0.003209,-0.007137,-0.002509,345.269623,349.732422,-1.000000,0.000000,0.000000
482148608.654871,0.009644,-0.004852,-1.060181,0.009495,0.009822,0.002826,0.999951,0.002919,-0.009494,-0.002826,0.999948,0.009822,0.009523,-0.009795,0.999907,0.009494,-0.009822,-0.999907,0.001339,-0.002034,-0.064195,0.004429,0.000997,0.002434,345.269623,349.732422,-1.000000,0.000000,0.000000
482148608.674664,0.012817,-0.011902,-1.064087,0.009382,0.009748,0.002820,0.999952,0.002911,-0.009381,-0.002819,0.999949,0.009748,0.009409,-0.009721,0.999908,0.009381,-0.009748,-0.999908,0.000400,0.000883,-0.065186,-0.002958,-0.003719,-0.002532,345.269623,349.732422,-1.000000,0.000000,0.000000
482148608.682484,0.012726,-0.009872,-1.057220,0.009434,0.009807,0.002884,0.999951,0.002977,-0.009434,-0.002884,0.999948,0.009806,0.009462,-0.009779,0.999907,0.009434,-0.009806,-0.999907,0.001324,0.000956,-0.062242,0.011802,0.004574,0.009859,345.269623,349.732422,-1.000000,0.000000,0.000000
482148608.700207,0.007935,-0.014801,-1.065094,0.009463,0.009723,0.002919,0.999951,0.003011,-0.009462,-0.002919,0.999949,0.009723,0.009491,-0.009695,0.999908,0.009462,-0.009723,-0.999908,0.003355,-0.002179,-0.064179,0.000716,-0.001328,0.003644,345.269623,349.732422,-1.000000,0.000000,0.000000
482148608.701427,0.007935,-0.014801,-1.065094,0.009463,0.009723,0.002919,0.999951,0.003011,-0.009462,-0.002919,0.999949,0.009723,0.009491,-0.009695,0.999908,0.009462,-0.009723,-0.999908,0.003355,-0.002179,-0.064179,0.000716,-0.001328,0.003644,345.269623,349.732422,-1.000000,0.000000,0.000000
482148608.712875,0.009750,-0.008835,-1.061172,0.009521,0.009693,0.002978,0.999950,0.003070,-0.009521,-0.002978,0.999949,0.009693,0.009550,-0.009664,0.999908,0.009521,-0.009693,-0.999908,0.003205,-0.000179,-0.057313,-0.002983,-0.000197,0.003629,345.269623,349.732422,-1.000000,0.000000,0.000000
482148608.759536,0.009811,-0.010834,-1.064117,0.009421,0.009786,0.003245,0.999950,0.003338,-0.009420,-0.003245,0.999947,0.009786,0.009452,-0.009755,0.999908,0.009420,-0.009786,-0.999908,-0.001623,-0.000041,-0.064210,0.000721,-0.000187,0.002414,345.269623,349.732422,-1.000000,0.000000,0.000000
482148608.771824,0.009689,-0.005890,-1.064102,0.009413,0.009734,0.003287,0.999950,0.003378,-0.009412,-0.003287,0.999947,0.009734,0.009444,-0.009703,0.999908,0.009412,-0.009734,-0.999908,0.000323,0.002822,-0.067139,0.001943,-0.001312,0.004880,345.269623,349.732422,-1.000000,0.000000,0.000000
482148608.782342,0.010788,-0.009872,-1.063110,0.009464,0.009744,0.003303,0.999949,0.003395,-0.009463,-0.003303,0.999947,0.009744,0.009496,-0.009712,0.999908,0.009463,-0.009744,-0.999908,0.000348,-0.001090,-0.064210,0.001978,0.003228,-0.004961,345.269623,349.732422,-1.000000,0.000000,0.000000
482148608.796433,0.011780,-0.011856,-1.059204,0.009494,0.009688,0.003321,0.999949,0.003412,-0.009493,-0.003320,0.999948,0.009688,0.009526,-0.009656,0.999908,0.009493,-0.009688,-0.999908,0.000196,0.003798,-0.064194,0.001926,0.005662,0.009815,345.269623,349.732422,-1.000000,0.000000,0.000000
482148608.801935,0.008820,-0.009857,-1.065094,0.009494,0.009688,0.003321,0.999949,0.003412,-0.009493,-0.003320,0.999948,0.009688,0.009526,-0.009656,0.999908,0.009493,-0.009688,-0.999908,0.000196,0.003798,-0.064194,0.001926,0.005662,0.009815,345.269623,349.732422,-1.000000,0.000000,0.000000
482148608.812623,0.009811,-0.011826,-1.062164,0.009476,0.009706,0.003379,0.999949,0.003471,-0.009475,-0.003379,0.999947,0.009706,0.009508,-0.009673,0.999908,0.009475,-0.009706,-0.999908,0.001313,-0.000167,-0.063202,-0.002985,0.002101,0.002401,345.269623,349.732422,-1.000000,0.000000,0.000000
482148608.822861,0.013840,-0.013870,-1.060165,0.009476,0.009706,0.003379,0.999949,0.003471,-0.009475,-0.003379,0.999947,0.009706,0.009508,-0.009673,0.999908,0.009475,-0.009706,-0.999908,0.001313,-0.000167,-0.063202,-0.002985,0.002101,0.002401,345.269623,349.732422,-1.000000,0.000000,0.000000
482148608.831508,0.013840,-0.013870,-1.060165,0.009511,0.009730,0.003420,0.999949,0.003513,-0.009511,-0.003420,0.999947,0.009730,0.009544,-0.009697,0.999907,0.009511,-0.009730,-0.999907,0.002269,-0.002126,-0.059297,0.003174,-0.002451,0.004884,345.269623,349.732422,-1.000000,0.000000,0.000000
482148608.841781,0.010803,-0.008896,-1.067047,0.009474,0.009815,0.003347,0.999949,0.003440,-0.009473,-0.003347,0.999946,0.009815,0.009506,-0.009783,0.999907,0.009473,-0.009815,-0.999907,0.000338,-0.002010,-0.062257,0.003228,-0.000279,-0.011116,345.269623,349.732422,-1.000000,0.000000,0.000000
482148608.852043,0.008835,-0.011810,-1.062164,0.009474,0.009815,0.003347,0.999949,0.003440,-0.009473,-0.003347,0.999946,0.009815,0.009506,-0.009783,0.999907,0.009473,-0.009815,-0.999907,0.000338,-0.002010,-0.062257,0.003228,-0.000279,-0.011116,345.269623,349.732422,-1.000000,0.000000,0.000000
482148608.862160,0.013718,-0.008896,-1.060165,0.009553,0.009946,0.003304,0.999949,0.003399,-0.009553,-0.003304,0.999945,0.009945,0.009586,-0.009913,0.999905,0.009553,-0.009945,-0.999905,0.004287,-0.003925,-0.060260,0.009374,0.002141,-0.003698,345.269623,349.732422,-1.000000,0.000000,0.000000
482148608.872559,0.007828,-0.009857,-1.067062,0.009509,0.009987,0.003309,0.999949,0.003404,-0.009508,-0.003309,0.999945,0.009987,0.009542,-0.009955,0.999905,0.009508,-0.009987,-0.999905,-0.000673,-0.001824,-0.062259,0.005644,-0.004742,0.004891,345.269623,349.732422,-1.000000,0.000000,0.000000
482148608.882374,0.010803,-0.010818,-1.060181,0.009473,0.009988,0.003368,0.999949,0.003463,-0.009473,-0.003368,0.999944,0.009988,0.009507,-0.009956,0.999905,0.009473,-0.009988,-0.999905,-0.000638,-0.001822,-0.062259,-0.001755,-0.002485,0.004861,345.269623,349.732422,-1.000000,0.000000,0.000000
482148608.892680,0.010788,-0.009872,-1.064102,0.009473,0.009988,0.003368,0.999949,0.003463,-0.009473,-0.003368,0.999944,0.009988,0.009507,-0.009956,0.999905,0.009473,-0.009988,-0.999905,-0.000638,-0.001822,-0.062259,-0.001755,-0.002485,0.004861,345.269623,349.732422,-1.000000,0.000000,0.000000
482148608.902484,0.007858,-0.013748,-1.057251,0.009500,0.009904,0.003379,0.999949,0.003473,-0.009499,-0.003379,0.999945,0.009904,0.009533,-0.009871,0.999906,0.009499,-0.009904,-0.999906,-0.001671,0.000047,-0.067157,0.000717,-0.000177,0.002414,345.269623,349.732422,-1.000000,0.000000,0.000000
482148608.912687,0.009781,-0.008865,-1.065094,0.009523,0.009953,0.003432,0.999948,0.003527,-0.009522,-0.003432,0.999945,0.009953,0.009557,-0.009920,0.999905,0.009522,-0.009953,-0.999905,0.001281,-0.000866,-0.060276,0.005644,0.001034,0.004900,345.269623,349.732422,-1.000000,0.000000,0.000000
482148608.922791,0.013733,-0.008926,-1.063095,0.009523,0.009953,0.003432,0.999948,0.003527,-0.009522,-0.003432,0.999945,0.009953,0.009557,-0.009920,0.999905,0.009522,-0.009953,-0.999905,0.001281,-0.000866,-0.060276,0.005644,0.001034,0.004900,345.269623,349.732422,-1.000000,0.000000,0.000000
482148608.932930,0.009857,-0.012833,-1.064117,0.009468,0.010060,0.003467,0.999949,0.003562,-0.009467,-0.003467,0.999943,0.010060,0.009503,-0.010027,0.999905,0.009467,-0.010060,-0.999905,-0.001609,-0.003688,-0.057346,-0.001739,-0.001371,-0.000061,345.269623,349.732422,-1.000000,0.000000,0.000000
482148608.942555,0.009857,-0.012833,-1.064117,0.009444,0.010009,0.003431,0.999949,0.003525,-0.009443,-0.003430,0.999944,0.010009,0.009478,-0.009976,0.999905,0.009443,-0.010009,-0.999905,0.000337,0.001144,-0.065189,-0.000494,0.000915,-0.003745,345.269623,349.732422,-1.000000,0.000000,0.000000
482148608.952258,0.004959,-0.013733,-1.063156,0.009444,0.010009,0.003431,0.999949,0.003525,-0.009443,-0.003430,0.999944,0.010009,0.009478,-0.009976,0.999905,0.009443,-0.010009,-0.999905,0.000337,0.001144,-0.065189,-0.000494,0.000915,-0.003745,345.269623,349.732422,-1.000000,0.000000,0.000000
482148608.962420,0.009689,-0.006866,-1.061157,0.009530,0.010047,0.003471,0.999948,0.003566,-0.009530,-0.003470,0.999943,0.010046,0.009565,-0.010013,0.999904,0.009530,-0.010046,-0.999904,0.004203,0.001120,-0.063191,0.003173,0.004494,0.006126,345.269623,349.732422,-1.000000,0.000000,0.000000
482148608.972480,0.011826,-0.012863,-1.062149,0.009545,0.010040,0.003530,0.999948,0.003626,-0.009545,-0.003530,0.999943,0.010039,0.009580,-0.010005,0.999904,0.009545,-0.010039,-0.999904,0.000313,-0.002793,-0.064213,-0.005443,0.002080,0.001158,345.786743,350.249542,-1.000000,0.000000,0.000000
482148608.983493,0.010727,-0.007858,-1.061157,0.009545,0.010040,0.003530,0.999948,0.003626,-0.009545,-0.003530,0.999943,0.010039,0.009580,-0.010005,0.999904,0.009545,-0.010039,-0.999904,0.000313,-0.002793,-0.064213,-0.005443,0.002080,0.001158,345.786743,350.249542,-1.000000,0.000000,0.000000
482148608.992318,0.008881,-0.012817,-1.064117,0.009461,0.010016,0.003579,0.999949,0.003674,-0.009460,-0.003579,0.999943,0.010016,0.009496,-0.009982,0.999905,0.009460,-0.010016,-0.999905,0.000229,0.003149,-0.061252,-0.003015,-0.001442,0.001644,0.000000,0.000000,-1.000000,0.000000,0.000000
482148609.002600,0.010727,-0.007843,-1.060181,0.009485,0.010010,0.003601,0.999948,0.003696,-0.009484,-0.003601,0.999943,0.010010,0.009521,-0.009975,0.999905,0.009484,-0.010010,-0.999905,0.002341,-0.002853,-0.062244,-0.003014,-0.000287,0.001646,0.000000,0.000000,-1.000000,0.000000,0.000000
482148609.013611,0.008881,-0.013779,-1.059219,0.009485,0.010010,0.003601,0.999948,0.003696,-0.009484,-0.003601,0.999943,0.010010,0.009521,-0.009975,0.999905,0.009484,-0.010010,-0.999905,0.002341,-0.002853,-0.062244,-0.003014,-0.000287,0.001646,0.000000,0.000000,-1.000000,0.000000,0.000000
482148609.022563,0.013733,-0.009918,-1.062134,0.009475,0.010112,0.003609,0.999948,0.003705,-0.009475,-0.003609,0.999942,0.010112,0.009512,-0.010078,0.999904,0.009475,-0.010112,-0.999904,-0.000594,-0.002705,-0.064213,0.000673,-0.002539,0.005352,345.787659,350.250458,-1.000000,0.000000,0.000000
482148609.032029,0.013733,-0.009918,-1.062134,0.009506,0.010095,0.003655,0.999948,0.003751,-0.009505,-0.003655,0.999942,0.010095,0.009543,-0.010060,0.999904,0.009505,-0.010095,-0.999904,-0.000625,-0.002722,-0.064214,-0.004262,0.004365,0.006572,345.787659,350.250458,-1.000000,0.000000,0.000000
482148609.044123,0.008820,-0.010803,-1.061172,0.009506,0.010095,0.003655,0.999948,0.003751,-0.009505,-0.003655,0.999942,0.010095,0.009543,-0.010060,0.999904,0.009505,-0.010095,-0.999904,-0.000625,-0.002722,-0.064214,-0.004262,0.004365,0.006572,345.787659,350.250458,-1.000000,0.000000,0.000000
482148609.052430,0.013702,-0.007935,-1.064087,0.009491,0.010150,0.003706,0.999948,0.003802,-0.009491,-0.003705,0.999942,0.010150,0.009529,-0.010114,0.999903,0.009491,-0.010150,-0.999903,-0.000610,-0.003629,-0.059316,0.010561,0.000943,-0.000753,345.787659,350.250458,-1.000000,0.000000,0.000000
482148609.062658,0.008820,-0.010803,-1.062164,0.009606,0.010153,0.003655,0.999947,0.003752,-0.009605,-0.003655,0.999942,0.010153,0.009643,-0.010117,0.999902,0.009605,-0.010153,-0.999902,0.004128,0.000235,-0.062231,0.000699,0.005484,-0.002022,345.787659,350.250458,-1.000000,0.000000,0.000000
482148609.072568,0.014740,-0.008942,-1.063080,0.009679,0.010126,0.003699,0.999946,0.003797,-0.009678,-0.003699,0.999942,0.010126,0.009716,-0.010090,0.999902,0.009678,-0.010126,-0.999902,0.004024,0.002191,-0.064185,-0.000532,0.004311,-0.003260,345.786255,350.249054,-1.000000,0.000000,0.000000
482148609.082506,0.003876,-0.010696,-1.060226,0.009679,0.010126,0.003699,0.999946,0.003797,-0.009678,-0.003699,0.999942,0.010126,0.009716,-0.010090,0.999902,0.009678,-0.010126,-0.999902,0.004024,0.002191,-0.064185,-0.000532,0.004311,-0.003260,345.786255,350.249054,-1.000000,0.000000,0.000000
482148609.092524,0.013657,-0.006927,-1.060150,0.009655,0.010110,0.003703,0.999946,0.003801,-0.009654,-0.003703,0.999942,0.010110,0.009692,-0.010074,0.999902,0.009654,-0.010110,-0.999902,-0.000835,-0.000693,-0.062262,0.001925,-0.000271,-0.000794,345.786255,350.249054,-1.000000,0.000000,0.000000
482148609.102673,0.010803,-0.010818,-1.060181,0.009631,0.010116,0.003862,0.999946,0.003959,-0.009630,-0.003861,0.999941,0.010115,0.009669,-0.010078,0.999902,0.009630,-0.010115,-0.999902,-0.005754,-0.000581,-0.060324,-0.001817,-0.002503,0.011496,345.786255,350.249054,-1.000000,0.000000,0.000000
482148609.113960,0.011765,-0.009903,-1.063110,0.009631,0.010116,0.003862,0.999946,0.003959,-0.009630,-0.003861,0.999941,0.010115,0.009669,-0.010078,0.999902,0.009630,-0.010115,-0.999902,-0.005754,-0.000581,-0.060324,-0.001817,-0.002503,0.011496,345.786255,350.249054,-1.000000,0.000000,0.000000
482148609.122055,0.010880,-0.012863,-1.066055,0.009679,0.010060,0.003865,0.999945,0.003962,-0.009678,-0.003865,0.999942,0.010060,0.009717,-0.010022,0.999903,0.009678,-0.010060,-0.999903,0.003979,0.003133,-0.060248,0.004396,-0.001428,-0.003247,345.786255,350.249054,-1.000000,0.000000,0.000000
482148609.131937,0.010880,-0.012863,-1.066055,0.009679,0.010060,0.003865,0.999945,0.003962,-0.009678,-0.003865,0.999942,0.010060,0.009717,-0.010022,0.999903,0.009678,-0.010060,-0.999903,0.003979,0.003133,-0.060248,0.004396,-0.001428,-0.003247,345.784882,350.247681,-1.000000,0.000000,0.000000
482148609.145207,0.014755,-0.009949,-1.064072,0.009662,0.010101,0.003963,0.999945,0.004060,-0.009661,-0.003963,0.999941,0.010101,0.009701,-0.010062,0.999902,0.009661,-0.010101,-0.999902,0.001142,-0.000718,-0.060278,0.003140,0.002091,0.004140,345.784882,350.247681,-1.000000,0.000000,0.000000
482148609.152319,0.012878,-0.013885,-1.064087,0.009675,0.010140,0.003913,0.999945,0.004011,-0.009675,-0.003912,0.999941,0.010140,0.009715,-0.010102,0.999902,0.009675,-0.010140,-0.999902,0.002090,0.000237,-0.063209,0.003166,-0.003755,-0.004487,345.784882,350.247681,-1.000000,0.000000,0.000000
482148609.164463,0.014771,-0.010910,-1.062119,0.009811,0.010240,0.003980,0.999944,0.004080,-0.009811,-0.003979,0.999940,0.010239,0.009852,-0.010200,0.999899,0.009811,-0.010239,-0.999899,0.004945,0.000291,-0.064172,0.003124,0.002136,0.009064,345.784882,350.247681,-1.000000,0.000000,0.000000
482148609.172415,0.007904,-0.014771,-1.061172,0.009811,0.010240,0.003980,0.999944,0.004080,-0.009811,-0.003979,0.999940,0.010239,0.009852,-0.010200,0.999899,0.009811,-0.010239,-0.999899,0.004945,0.000291,-0.064172,0.003124,0.002136,0.009064,345.785248,350.248047,-1.000000,0.000000,0.000000
482148609.182118,0.010696,-0.005905,-1.063095,0.009825,0.010306,0.004007,0.999943,0.004108,-0.009825,-0.004007,0.999939,0.010306,0.009866,-0.010266,0.999899,0.009825,-0.010306,-0.999899,0.003054,-0.003579,-0.064188,-0.000559,-0.001394,0.004117,345.785248,350.248047,-1.000000,0.000000,0.000000
482148609.192611,0.007767,-0.008804,-1.062164,0.009895,0.010405,0.004063,0.999942,0.004166,-0.009895,-0.004063,0.999938,0.010405,0.009937,-0.010364,0.999897,0.009895,-0.010405,-0.999897,-0.001991,-0.004365,-0.061276,-0.000556,0.002071,0.004122,345.785248,350.248047,-1.000000,0.000000,0.000000
482148609.203643,0.008850,-0.010834,-1.065094,0.009895,0.010405,0.004063,0.999942,0.004166,-0.009895,-0.004063,0.999938,0.010405,0.009937,-0.010364,0.999897,0.009895,-0.010405,-0.999897,-0.001991,-0.004365,-0.061276,-0.000556,0.002071,0.004122,345.785248,350.248047,-1.000000,0.000000,0.000000
482148609.212419,0.008804,-0.010788,-1.059219,0.009859,0.010424,0.004025,0.999943,0.004128,-0.009859,-0.004025,0.999938,0.010424,0.009901,-0.010383,0.999897,0.009859,-0.010424,-0.999897,-0.001955,-0.004347,-0.061275,0.003173,-0.006070,-0.005722,345.785248,350.248047,-1.000000,0.000000,0.000000
482148609.222417,0.012772,-0.008926,-1.065063,0.009810,0.010339,0.004099,0.999943,0.004201,-0.009809,-0.004099,0.999938,0.010339,0.009852,-0.010298,0.999898,0.009809,-0.010339,-0.999898,-0.002042,0.001535,-0.062266,0.000662,0.009038,0.007832,345.785248,350.248047,-1.000000,0.000000,0.000000
482148609.233790,0.003937,-0.012726,-1.063156,0.009810,0.010339,0.004099,0.999943,0.004201,-0.009809,-0.004099,0.999938,0.010339,0.009852,-0.010298,0.999898,0.009809,-0.010339,-0.999898,-0.002042,0.001535,-0.062266,0.000662,0.009038,0.007832,345.786774,350.249573,-1.000000,0.000000,0.000000
482148609.244346,0.003937,-0.012726,-1.063156,0.009795,0.010325,0.004098,0.999943,0.004199,-0.009794,-0.004098,0.999938,0.010325,0.009837,-0.010284,0.999899,0.009794,-0.010325,-0.999899,-0.000944,-0.000509,-0.065195,-0.000546,-0.002593,-0.000809,345.786774,350.249573,-1.000000,0.000000,0.000000
482148609.252008,0.011688,-0.006927,-1.063095,0.009738,0.010292,0.004052,0.999944,0.004152,-0.009738,-0.004052,0.999939,0.010292,0.009780,-0.010252,0.999900,0.009738,-0.010292,-0.999900,0.003034,0.001365,-0.065164,0.004366,-0.002505,0.005368,345.786774,350.249573,-1.000000,0.000000,0.000000
482148609.263975,0.015762,-0.009003,-1.067993,0.009586,0.010331,0.004075,0.999945,0.004174,-0.009586,-0.004075,0.999938,0.010331,0.009628,-0.010291,0.999901,0.009586,-0.010331,-0.999901,-0.005649,-0.002395,-0.063255,0.000675,-0.003710,0.002887,345.786774,350.249573,-1.000000,0.000000,0.000000
482148609.272494,0.015762,-0.009003,-1.067993,0.009586,0.010331,0.004075,0.999945,0.004174,-0.009586,-0.004075,0.999938,0.010331,0.009628,-0.010291,0.999901,0.009586,-0.010331,-0.999901,-0.005649,-0.002395,-0.063255,0.000675,-0.003710,0.002887,345.786774,350.249573,-1.000000,0.000000,0.000000
482148609.282233,0.008911,-0.013809,-1.063126,0.009636,0.010253,0.004095,0.999945,0.004194,-0.009635,-0.004095,0.999939,0.010253,0.009678,-0.010213,0.999901,0.009635,-0.010253,-0.999901,0.002053,0.003326,-0.063194,0.005603,0.002109,0.004150,345.790253,350.253052,-1.000000,0.000000,0.000000
482148609.292595,0.007812,-0.010773,-1.060196,0.009601,0.010271,0.004082,0.999945,0.004180,-0.009600,-0.004082,0.999939,0.010270,0.009642,-0.010231,0.999901,0.009600,-0.010270,-0.999901,-0.001757,-0.001540,-0.063224,-0.003002,-0.001491,-0.004512,345.790253,350.253052,-1.000000,0.000000,0.000000
482148609.302725,0.009750,-0.006927,-1.069016,0.009601,0.010271,0.004082,0.999945,0.004180,-0.009600,-0.004082,0.999939,0.010270,0.009642,-0.010231,0.999901,0.009600,-0.010270,-0.999901,-0.001757,-0.001540,-0.063224,-0.003002,-0.001491,-0.004512,345.790253,350.253052,-1.000000,0.000000,0.000000
482148609.312481,0.010895,-0.014801,-1.060181,0.009609,0.010265,0.004072,0.999945,0.004170,-0.009608,-0.004071,0.999939,0.010265,0.009650,-0.010225,0.999901,0.009608,-0.010265,-0.999901,-0.000697,-0.003544,-0.063224,-0.003022,-0.003745,0.001639,345.790253,350.253052,-1.000000,0.000000,0.000000
482148609.322930,0.007706,-0.005859,-1.064102,0.009597,0.010246,0.004082,0.999945,0.004181,-0.009596,-0.004082,0.999939,0.010246,0.009638,-0.010206,0.999901,0.009596,-0.010246,-0.999901,-0.001784,-0.000527,-0.060294,-0.004262,0.005503,0.004111,345.790253,350.253052,-1.000000,0.000000,0.000000
482148609.332495,0.011765,-0.009903,-1.064102,0.009597,0.010246,0.004082,0.999945,0.004181,-0.009596,-0.004082,0.999939,0.010246,0.009638,-0.010206,0.999901,0.009596,-0.010246,-0.999901,-0.001784,-0.000527,-0.060294,-0.004262,0.005503,0.004111,345.791870,350.254669,-1.000000,0.000000,0.000000
482148609.342379,0.008713,-0.005875,-1.063110,0.009607,0.010283,0.004168,0.999945,0.004267,-0.009606,-0.004168,0.999938,0.010283,0.009649,-0.010242,0.999901,0.009606,-0.010283,-0.999901,0.001289,-0.004518,-0.060280,0.000679,0.003208,0.001667,345.791870,350.254669,-1.000000,0.000000,0.000000
482148609.351969,0.008713,-0.005875,-1.063110,0.009587,0.010240,0.004185,0.999945,0.004283,-0.009586,-0.004185,0.999939,0.010239,0.009630,-0.010199,0.999902,0.009586,-0.010239,-0.999902,-0.001881,0.004380,-0.064201,0.004375,0.002078,0.001682,345.791870,350.254669,-1.000000,0.000000,0.000000
482148609.362337,0.011765,-0.009903,-1.064102,0.009587,0.010240,0.004185,0.999945,0.004283,-0.009586,-0.004185,0.999939,0.010239,0.009630,-0.010199,0.999902,0.009586,-0.010239,-0.999902,-0.001881,0.004380,-0.064201,0.004375,0.002078,0.001682,345.791870,350.254669,-1.000000,0.000000,0.000000
482148609.372387,0.006805,-0.008759,-1.060211,0.009593,0.010187,0.004229,0.999945,0.004326,-0.009593,-0.004229,0.999939,0.010187,0.009636,-0.010146,0.999902,0.009593,-0.010187,-0.999902,0.002172,0.000284,-0.064200,-0.006745,0.003207,0.007789,345.791870,350.254669,-1.000000,0.000000,0.000000
482148609.382258,0.009796,-0.010803,-1.060196,0.009609,0.010122,0.004269,0.999944,0.004366,-0.009608,-0.004269,0.999940,0.010122,0.009652,-0.010080,0.999903,0.009608,-0.010122,-0.999903,-0.000895,0.004247,-0.063208,0.004360,0.000955,0.005373,345.792114,350.254913,-1.000000,0.000000,0.000000
482148609.393618,0.011719,-0.007904,-1.063110,0.009609,0.010122,0.004269,0.999944,0.004366,-0.009608,-0.004269,0.999940,0.010122,0.009652,-0.010080,0.999903,0.009608,-0.010122,-0.999903,-0.000895,0.004247,-0.063208,0.004360,0.000955,0.005373,345.792114,350.254913,-1.000000,0.000000,0.000000
482148609.402003,0.011795,-0.010880,-1.064102,0.009547,0.010120,0.004289,0.999945,0.004386,-0.009547,-0.004289,0.999940,0.010119,0.009591,-0.010078,0.999903,0.009547,-0.010119,-0.999903,-0.002741,0.001361,-0.060308,0.004361,-0.002521,0.004137,345.792114,350.254913,-1.000000,0.000000,0.000000
482148609.412573,0.008804,-0.007889,-1.069031,0.009539,0.010098,0.004306,0.999945,0.004402,-0.009538,-0.004306,0.999940,0.010097,0.009582,-0.010056,0.999904,0.009538,-0.010097,-0.999904,0.000258,-0.000706,-0.060292,-0.004255,0.000840,-0.000821,345.792114,350.254913,-1.000000,0.000000,0.000000
482148609.422429,0.013702,-0.007935,-1.063095,0.009614,0.010033,0.004290,0.999944,0.004386,-0.009613,-0.004289,0.999940,0.010033,0.009656,-0.009991,0.999903,0.009613,-0.010033,-0.999903,0.002182,-0.000847,-0.064199,-0.004241,0.001954,-0.005744,345.792114,350.254913,-1.000000,0.000000,0.000000
482148609.432469,0.007797,-0.008835,-1.065094,0.009614,0.010033,0.004290,0.999944,0.004386,-0.009613,-0.004289,0.999940,0.010033,0.009656,-0.009991,0.999903,0.009613,-0.010033,-0.999903,0.002182,-0.000847,-0.064199,-0.004241,0.001954,-0.005744,345.792603,350.255402,-1.000000,0.000000,0.000000
482148609.442462,0.013733,-0.008926,-1.063095,0.009562,0.009941,0.004306,0.999945,0.004401,-0.009561,-0.004306,0.999941,0.009941,0.009604,-0.009899,0.999905,0.009561,-0.009941,-0.999905,-0.000757,0.002052,-0.069126,-0.005517,-0.003724,0.006552,345.792603,350.255402,-1.000000,0.000000,0.000000
482148609.453803,0.008789,-0.009827,-1.062164,0.009631,0.009888,0.004194,0.999944,0.004289,-0.009630,-0.004194,0.999942,0.009888,0.009672,-0.009847,0.999905,0.009630,-0.009888,-0.999905,0.004072,0.001953,-0.063190,-0.002991,-0.000397,-0.011897,345.792603,350.255402,-1.000000,0.000000,0.000000
482148609.463189,0.008789,-0.009827,-1.062164,0.009631,0.009888,0.004194,0.999944,0.004289,-0.009630,-0.004194,0.999942,0.009888,0.009672,-0.009847,0.999905,0.009630,-0.009888,-0.999905,0.004072,0.001953,-0.063190,-0.002991,-0.000397,-0.011897,345.792603,350.255402,-1.000000,0.000000,0.000000
482148609.472307,0.010880,-0.013824,-1.062149,0.009567,0.009846,0.004193,0.999945,0.004287,-0.009566,-0.004193,0.999943,0.009846,0.009608,-0.009805,0.999906,0.009566,-0.009846,-0.999906,-0.001769,0.001011,-0.065188,-0.001801,-0.006059,0.000410,345.792603,350.255402,-1.000000,0.000000,0.000000
482148609.482365,0.007751,-0.007828,-1.063126,0.009506,0.009813,0.004057,0.999946,0.004150,-0.009505,-0.004057,0.999944,0.009812,0.009545,-0.009773,0.999907,0.009505,-0.009812,-0.999907,-0.000716,-0.000014,-0.062258,-0.003015,-0.007274,-0.005753,345.792603,350.255402,-1.000000,0.000000,0.000000
482148609.492391,0.009827,-0.011841,-1.064117,0.009506,0.009813,0.004057,0.999946,0.004150,-0.009505,-0.004057,0.999944,0.009812,0.009545,-0.009773,0.999907,0.009505,-0.009812,-0.999907,-0.000716,-0.000014,-0.062258,-0.003015,-0.007274,-0.005753,345.793457,350.256256,-1.000000,0.000000,0.000000
482148609.502615,0.008759,-0.007843,-1.064117,0.009517,0.009863,0.004061,0.999946,0.004155,-0.009517,-0.004061,0.999943,0.009863,0.009557,-0.009824,0.999906,0.009517,-0.009863,-0.999906,0.001363,-0.003961,-0.062243,-0.000572,0.003211,0.002892,345.793457,350.256256,-1.000000,0.000000,0.000000
482148609.512119,0.009811,-0.010834,-1.064117,0.009497,0.009794,0.004022,0.999946,0.004115,-0.009497,-0.004022,0.999944,0.009794,0.009537,-0.009755,0.999907,0.009497,-0.009794,-0.999907,0.000330,-0.002047,-0.064210,-0.001799,-0.000285,0.000419,345.793457,350.256256,-1.000000,0.000000,0.000000
482148609.522754,0.005875,-0.009811,-1.067078,0.009497,0.009794,0.004022,0.999946,0.004115,-0.009497,-0.004022,0.999944,0.009794,0.009537,-0.009755,0.999907,0.009497,-0.009794,-0.999907,0.000330,-0.002047,-0.064210,-0.001799,-0.000285,0.000419,345.793457,350.256256,-1.000000,0.000000,0.000000
482148609.532319,0.013763,-0.011887,-1.059189,0.009437,0.009718,0.003979,0.999947,0.004070,-0.009436,-0.003979,0.999945,0.009718,0.009475,-0.009680,0.999908,0.009436,-0.009718,-0.999908,-0.000678,0.001875,-0.064209,-0.004236,-0.003851,-0.009447,345.793457,350.256256,-1.000000,0.000000,0.000000
482148609.542603,0.007767,-0.008789,-1.060196,0.009416,0.009687,0.003957,0.999947,0.004048,-0.009416,-0.003957,0.999945,0.009687,0.009454,-0.009649,0.999909,0.009416,-0.009687,-0.999909,0.000396,-0.001147,-0.064209,0.001915,-0.003766,-0.004494,345.793121,350.255920,-1.000000,0.000000,0.000000
482148609.554270,0.006821,-0.009781,-1.061188,0.009316,0.009696,0.003974,0.999948,0.004064,-0.009315,-0.003974,0.999945,0.009696,0.009354,-0.009658,0.999910,0.009315,-0.009696,-0.999910,-0.003441,-0.000116,-0.067168,0.001900,0.002047,0.000439,345.793121,350.255920,-1.000000,0.000000,0.000000
482148609.563517,0.012772,-0.009918,-1.063095,0.009316,0.009696,0.003974,0.999948,0.004064,-0.009315,-0.003974,0.999945,0.009696,0.009354,-0.009658,0.999910,0.009315,-0.009696,-0.999910,-0.003441,-0.000116,-0.067168,0.001900,0.002047,0.000439,345.793121,350.255920,-1.000000,0.000000,0.000000
482148609.571859,0.012772,-0.009918,-1.063095,0.009285,0.009669,0.004012,0.999949,0.004102,-0.009285,-0.004012,0.999945,0.009669,0.009324,-0.009631,0.999910,0.009285,-0.009669,-0.999910,-0.001518,0.000880,-0.060286,-0.003039,-0.007214,0.001633,345.793121,350.255920,-1.000000,0.000000,0.000000
482148609.585898,0.011642,-0.004929,-1.064087,0.009183,0.009590,0.004041,0.999949,0.004129,-0.009182,-0.004041,0.999946,0.009590,0.009221,-0.009552,0.999912,0.009182,-0.009590,-0.999912,-0.002361,-0.000191,-0.061276,-0.005509,-0.002605,0.002860,345.793121,350.255920,-1.000000,0.000000,0.000000
482148609.592495,0.011642,-0.004929,-1.064087,0.009183,0.009590,0.004041,0.999949,0.004129,-0.009182,-0.004041,0.999946,0.009590,0.009221,-0.009552,0.999912,0.009182,-0.009590,-0.999912,-0.002361,-0.000191,-0.061276,-0.005509,-0.002605,0.002860,345.792358,350.255157,-1.000000,0.000000,0.000000
482148609.602488,0.007828,-0.011795,-1.062164,0.009242,0.009532,0.004049,0.999949,0.004137,-0.009241,-0.004049,0.999946,0.009531,0.009280,-0.009494,0.999912,0.009241,-0.009531,-0.999912,0.000555,-0.001287,-0.062252,-0.006758,-0.002570,0.007779,345.792358,350.255157,-1.000000,0.000000,0.000000
482148609.612729,0.010651,-0.003922,-1.063095,0.009233,0.009544,0.004107,0.999949,0.004195,-0.009233,-0.004107,0.999946,0.009544,0.009272,-0.009506,0.999912,0.009233,-0.009544,-0.999912,0.000563,-0.001274,-0.062252,0.001888,0.000925,0.004130,345.792358,350.255157,-1.000000,0.000000,0.000000
482148609.622499,0.013718,-0.007950,-1.066040,0.009233,0.009544,0.004107,0.999949,0.004195,-0.009233,-0.004107,0.999946,0.009544,0.009272,-0.009506,0.999912,0.009233,-0.009544,-0.999912,0.000563,-0.001274,-0.062252,0.001888,0.000925,0.004130,345.792358,350.255157,-1.000000,0.000000,0.000000
482148609.632480,0.006805,-0.008759,-1.060211,0.009197,0.009471,0.004133,0.999949,0.004220,-0.009196,-0.004133,0.999947,0.009470,0.009236,-0.009432,0.999913,0.009196,-0.009470,-0.999913,-0.001368,-0.002325,-0.062251,0.000656,-0.002559,0.002888,345.792358,350.255157,-1.000000,0.000000,0.000000
482148609.642433,0.006851,-0.008820,-1.068054,0.009165,0.009355,0.004203,0.999949,0.004289,-0.009164,-0.004203,0.999947,0.009355,0.009204,-0.009316,0.999914,0.009164,-0.009355,-0.999914,0.001486,0.005433,-0.063181,0.001872,-0.008292,0.006578,345.792358,350.255157,-1.000000,0.000000,0.000000
482148609.652621,0.006851,-0.008820,-1.068054,0.009165,0.009355,0.004203,0.999949,0.004289,-0.009164,-0.004203,0.999947,0.009355,0.009204,-0.009316,0.999914,0.009164,-0.009355,-0.999914,0.001486,0.005433,-0.063181,0.001872,-0.008292,0.006578,345.789246,350.252045,-1.000000,0.000000,0.000000
482148609.663181,0.009827,-0.011841,-1.064117,0.009121,0.009298,0.004253,0.999949,0.004338,-0.009121,-0.004253,0.999948,0.009298,0.009161,-0.009259,0.999915,0.009121,-0.009298,-0.999915,-0.002316,0.000540,-0.060296,-0.003054,-0.004883,0.004099,345.789246,350.252045,-1.000000,0.000000,0.000000
482148609.671820,0.009827,-0.011841,-1.064117,0.009112,0.009309,0.004294,0.999949,0.004378,-0.009111,-0.004293,0.999947,0.009308,0.009151,-0.009269,0.999915,0.009111,-0.009308,-0.999915,-0.002260,0.000489,-0.068139,0.003134,0.005499,-0.002012,345.789246,350.252045,-1.000000,0.000000,0.000000
482148609.682685,0.013809,-0.010941,-1.067032,0.009112,0.009309,0.004294,0.999949,0.004378,-0.009111,-0.004293,0.999947,0.009308,0.009151,-0.009269,0.999915,0.009111,-0.009308,-0.999915,-0.002260,0.000489,-0.068139,0.003134,0.005499,-0.002012,345.789246,350.252045,-1.000000,0.000000,0.000000
482148609.692290,0.008850,-0.010834,-1.065094,0.009130,0.009266,0.004236,0.999949,0.004320,-0.009130,-0.004236,0.999948,0.009266,0.009169,-0.009227,0.999915,0.009130,-0.009266,-0.999915,0.001643,0.001362,-0.067132,-0.003055,-0.001420,0.004104,345.789246,350.252045,-1.000000,0.000000,0.000000
482148609.702646,0.009796,-0.010818,-1.062164,0.009180,0.009291,0.004246,0.999949,0.004331,-0.009179,-0.004246,0.999948,0.009291,0.009219,-0.009251,0.999915,0.009179,-0.009291,-0.999915,0.000647,-0.002550,-0.064203,-0.001800,0.002001,-0.002040,345.788849,350.251648,-1.000000,0.000000,0.000000
482148609.725608,0.010895,-0.013840,-1.063110,0.009180,0.009291,0.004246,0.999949,0.004331,-0.009179,-0.004246,0.999948,0.009291,0.009219,-0.009251,0.999915,0.009179,-0.009291,-0.999915,0.000647,-0.002550,-0.064203,-0.001800,0.002001,-0.002040,345.788849,350.251648,-1.000000,0.000000,0.000000
482148609.731821,0.009796,-0.010803,-1.060196,0.009226,0.009351,0.004462,0.999947,0.004548,-0.009225,-0.004461,0.999946,0.009351,0.009267,-0.009309,0.999914,0.009225,-0.009351,-0.999914,0.000571,-0.001467,-0.062251,-0.000594,-0.001379,0.006577,345.788849,350.251648,-1.000000,0.000000,0.000000
482148609.744613,0.011795,-0.010880,-1.063110,0.009264,0.009389,0.004458,0.999947,0.004545,-0.009264,-0.004458,0.999946,0.009389,0.009306,-0.009347,0.999913,0.009264,-0.009389,-0.999913,-0.001451,0.000539,-0.067149,-0.000562,0.007784,-0.002026,345.788849,350.251648,-1.000000,0.000000,0.000000
482148609.752481,0.004837,-0.009735,-1.060226,0.009264,0.009389,0.004458,0.999947,0.004545,-0.009264,-0.004458,0.999946,0.009389,0.009306,-0.009347,0.999913,0.009264,-0.009389,-0.999913,-0.001451,0.000539,-0.067149,-0.000562,0.007784,-0.002026,345.787354,350.250153,-1.000000,0.000000,0.000000
482148609.762468,0.010727,-0.007843,-1.060181,0.009256,0.009435,0.004510,0.999947,0.004597,-0.009255,-0.004510,0.999945,0.009435,0.009298,-0.009393,0.999913,0.009255,-0.009435,-0.999913,0.000541,-0.001368,-0.060283,0.006803,-0.003627,0.007838,345.787354,350.250153,-1.000000,0.000000,0.000000
482148609.773815,0.007782,-0.008820,-1.064117,0.009252,0.009358,0.004572,0.999946,0.004659,-0.009252,-0.004572,0.999946,0.009357,0.009295,-0.009315,0.999913,0.009252,-0.009357,-0.999913,0.002543,-0.001522,-0.063197,0.000659,0.002052,0.001664,345.787354,350.250153,-1.000000,0.000000,0.000000
482148609.783714,0.007782,-0.008820,-1.064117,0.009252,0.009358,0.004572,0.999946,0.004659,-0.009252,-0.004572,0.999946,0.009357,0.009295,-0.009315,0.999913,0.009252,-0.009357,-0.999913,0.002543,-0.001522,-0.063197,0.000659,0.002052,0.001664,345.787354,350.250153,-1.000000,0.000000,0.000000
482148609.793727,0.011749,-0.009888,-1.062149,0.009170,0.009361,0.004595,0.999947,0.004681,-0.009170,-0.004595,0.999946,0.009361,0.009213,-0.009318,0.999914,0.009170,-0.009361,-0.999914,-0.004333,-0.000375,-0.060312,-0.001812,0.002042,0.002884,345.787354,350.250153,-1.000000,0.000000,0.000000
482148609.802108,0.005920,-0.012756,-1.063141,0.009142,0.009371,0.004675,0.999947,0.004761,-0.009141,-0.004675,0.999945,0.009370,0.009185,-0.009327,0.999914,0.009141,-0.009370,-0.999914,-0.001359,0.000551,-0.064203,0.006806,-0.002485,0.006609,345.787903,350.250702,-1.000000,0.000000,0.000000
482148609.812750,0.006775,-0.005859,-1.068039,0.009142,0.009371,0.004675,0.999947,0.004761,-0.009141,-0.004675,0.999945,0.009370,0.009185,-0.009327,0.999914,0.009141,-0.009370,-0.999914,-0.001359,0.000551,-0.064203,0.006806,-0.002485,0.006609,345.787903,350.250702,-1.000000,0.000000,0.000000
482148609.822518,0.009720,-0.007843,-1.061172,0.009209,0.009346,0.004709,0.999946,0.004795,-0.009209,-0.004709,0.999945,0.009346,0.009253,-0.009302,0.999914,0.009209,-0.009346,-0.999914,0.002540,-0.000542,-0.062235,-0.001814,0.003197,0.002885,345.787903,350.250702,-1.000000,0.000000,0.000000
482148609.832554,0.011871,-0.014847,-1.062149,0.009059,0.009383,0.004757,0.999947,0.004842,-0.009059,-0.004757,0.999945,0.009383,0.009104,-0.009339,0.999915,0.009059,-0.009383,-0.999915,-0.002284,0.003523,-0.068124,0.003119,0.000914,0.005586,345.787903,350.250702,-1.000000,0.000000,0.000000
482148609.842518,0.010773,-0.009857,-1.061157,0.009059,0.009383,0.004757,0.999947,0.004842,-0.009059,-0.004757,0.999945,0.009383,0.009104,-0.009339,0.999915,0.009059,-0.009383,-0.999915,-0.002284,0.003523,-0.068124,0.003119,0.000914,0.005586,345.787903,350.250702,-1.000000,0.000000,0.000000
482148609.852285,0.011795,-0.010880,-1.063110,0.009030,0.009357,0.004728,0.999948,0.004812,-0.009030,-0.004727,0.999945,0.009357,0.009074,-0.009314,0.999915,0.009030,-0.009357,-0.999915,0.000690,0.001514,-0.061257,0.003140,-0.006077,-0.001811,345.787201,350.250000,-1.000000,0.000000,0.000000
482148609.862404,0.007874,-0.012802,-1.064117,0.009043,0.009478,0.004853,0.999947,0.004939,-0.009043,-0.004853,0.999943,0.009478,0.009089,-0.009433,0.999914,0.009043,-0.009478,-0.999914,0.002829,-0.005369,-0.062235,0.008044,-0.001339,0.008067,345.787201,350.250000,-1.000000,0.000000,0.000000
482148609.874898,0.007874,-0.012802,-1.064117,0.009043,0.009478,0.004853,0.999947,0.004939,-0.009043,-0.004853,0.999943,0.009478,0.009089,-0.009433,0.999914,0.009043,-0.009478,-0.999914,0.002829,-0.005369,-0.062235,0.008044,-0.001339,0.008067,345.787201,350.250000,-1.000000,0.000000,0.000000
482148609.881913,0.011780,-0.009918,-1.065079,0.009050,0.009505,0.004883,0.999947,0.004969,-0.009050,-0.004883,0.999943,0.009505,0.009097,-0.009460,0.999914,0.009050,-0.009505,-0.999914,0.001723,-0.000352,-0.061243,-0.000573,-0.003751,0.003100,345.787201,350.250000,-1.000000,0.000000,0.000000
482148609.892544,0.008774,-0.008820,-1.062164,0.009111,0.009539,0.004896,0.999946,0.004983,-0.009111,-0.004896,0.999943,0.009539,0.009158,-0.009494,0.999913,0.009111,-0.009539,-0.999913,-0.001237,-0.003263,-0.064204,-0.001800,0.000849,0.001871,345.787201,350.250000,-1.000000,0.000000,0.000000
482148609.903586,0.013733,-0.008926,-1.063095,0.009151,0.009559,0.004950,0.999945,0.005037,-0.009151,-0.004949,0.999942,0.009559,0.009198,-0.009513,0.999912,0.009151,-0.009559,-0.999912,0.002629,-0.000359,-0.065166,0.005591,-0.001386,0.004363,345.787201,350.250000,-1.000000,0.000000,0.000000
482148609.912570,0.013748,-0.008942,-1.065063,0.009151,0.009559,0.004950,0.999945,0.005037,-0.009151,-0.004949,0.999942,0.009559,0.009198,-0.009513,0.999912,0.009151,-0.009559,-0.999912,0.002629,-0.000359,-0.065166,0.005591,-0.001386,0.004363,345.787048,350.249847,-1.000000,0.000000,0.000000
482148609.923414,0.010864,-0.012848,-1.064102,0.009283,0.009439,0.005058,0.999944,0.005145,-0.009282,-0.005058,0.999943,0.009439,0.009330,-0.009392,0.999912,0.009282,-0.009439,-0.999912,0.004451,0.000513,-0.063183,0.001868,0.005580,0.011743,345.787048,350.249847,-1.000000,0.000000,0.000000
482148609.933291,0.010727,-0.007843,-1.060181,0.009263,0.009434,0.005034,0.999944,0.005121,-0.009262,-0.005034,0.999943,0.009434,0.009310,-0.009386,0.999913,0.009262,-0.009434,-0.999913,0.004471,0.000507,-0.063182,-0.001783,-0.006130,-0.004296,345.787048,350.249847,-1.000000,0.000000,0.000000
482148609.942389,0.009796,-0.010818,-1.062164,0.009263,0.009434,0.005034,0.999944,0.005121,-0.009262,-0.005034,0.999943,0.009434,0.009310,-0.009386,0.999913,0.009262,-0.009434,-0.999913,0.004471,0.000507,-0.063182,-0.001783,-0.006130,-0.004296,345.787048,350.249847,-1.000000,0.000000,0.000000
482148609.952384,0.009705,-0.006882,-1.064102,0.009300,0.009519,0.005070,0.999943,0.005158,-0.009299,-0.005069,0.999942,0.009519,0.009348,-0.009471,0.999911,0.009299,-0.009519,-0.999911,0.001565,-0.003329,-0.064191,0.001899,-0.001430,0.001883,345.787048,350.249847,-1.000000,0.000000,0.000000
482148609.966226,0.009735,-0.008820,-1.059219,0.009290,0.009479,0.005100,0.999943,0.005188,-0.009289,-0.005099,0.999942,0.009479,0.009338,-0.009431,0.999912,0.009289,-0.009479,-0.999912,0.001438,0.001636,-0.060269,-0.000566,-0.004922,0.000636,345.784851,350.247650,-1.000000,0.000000,0.000000
482148609.973814,0.009735,-0.008820,-1.059219,0.009290,0.009479,0.005100,0.999943,0.005188,-0.009289,-0.005099,0.999942,0.009479,0.009338,-0.009431,0.999912,0.009289,-0.009479,-0.999912,0.001438,0.001636,-0.060269,-0.000566,-0.004922,0.000636,345.784851,350.247650,-1.000000,0.000000,0.000000
482148609.982122,0.008774,-0.008820,-1.062164,0.009169,0.009455,0.005227,0.999944,0.005313,-0.009169,-0.005227,0.999942,0.009455,0.009218,-0.009406,0.999913,0.009169,-0.009455,-0.999913,0.000536,0.002573,-0.064189,0.004347,-0.004834,0.008124,345.784851,350.247650,-1.000000,0.000000,0.000000
482148609.992373,0.010925,-0.013870,-1.068024,0.009161,0.009475,0.005270,0.999944,0.005356,-0.009161,-0.005269,0.999941,0.009475,0.009211,-0.009426,0.999913,0.009161,-0.009475,-0.999913,0.000574,0.000656,-0.059306,0.003126,0.000900,0.004434,345.784851,350.247650,-1.000000,0.000000,0.000000
482148610.002920,0.012711,-0.007889,-1.060165,0.009161,0.009475,0.005270,0.999944,0.005356,-0.009161,-0.005269,0.999941,0.009475,0.009211,-0.009426,0.999913,0.009161,-0.009475,-0.999913,0.000574,0.000656,-0.059306,0.003126,0.000900,0.004434,345.784851,350.247650,-1.000000,0.000000,0.000000
482148610.012255,0.008667,-0.003891,-1.063110,0.009154,0.009443,0.005332,0.999943,0.005418,-0.009154,-0.005332,0.999941,0.009443,0.009204,-0.009394,0.999914,0.009154,-0.009443,-0.999914,-0.000380,0.000623,-0.062251,0.004387,0.000835,-0.004178,345.783569,350.246368,-1.000000,0.000000,0.000000
482148610.022593,0.012634,-0.005905,-1.057205,0.009217,0.009524,0.005369,0.999943,0.005456,-0.009216,-0.005368,0.999940,0.009524,0.009268,-0.009474,0.999912,0.009216,-0.009524,-0.999912,0.001709,-0.004346,-0.068112,-0.001810,0.003184,0.005646,345.783569,350.246368,-1.000000,0.000000,0.000000
482148610.032678,0.009918,-0.015808,-1.062164,0.009217,0.009524,0.005369,0.999943,0.005456,-0.009216,-0.005368,0.999940,0.009524,0.009268,-0.009474,0.999912,0.009216,-0.009524,-0.999912,0.001709,-0.004346,-0.068112,-0.001810,0.003184,0.005646,345.783569,350.246368,-1.000000,0.000000,0.000000
482148610.042573,0.009689,-0.006851,-1.060181,0.009260,0.009416,0.005388,0.999942,0.005475,-0.009260,-0.005388,0.999941,0.009415,0.009311,-0.009365,0.999913,0.009260,-0.009415,-0.999913,-0.000593,0.005524,-0.063198,-0.000562,0.006616,0.000733,345.783569,350.246368,-1.000000,0.000000,0.000000
482148610.053252,0.009842,-0.012802,-1.060196,0.009309,0.009372,0.005377,0.999942,0.005464,-0.009309,-0.005377,0.999942,0.009372,0.009359,-0.009321,0.999913,0.009309,-0.009372,-0.999913,0.003326,0.003467,-0.057292,0.003142,-0.001460,-0.001725,345.783569,350.246368,-1.000000,0.000000,0.000000
482148610.062502,0.013794,-0.012878,-1.059189,0.009309,0.009372,0.005377,0.999942,0.005464,-0.009309,-0.005377,0.999942,0.009372,0.009359,-0.009321,0.999913,0.009309,-0.009372,-0.999913,0.003326,0.003467,-0.057292,0.003142,-0.001460,-0.001725,345.779358,350.242157,-1.000000,0.000000,0.000000
482148610.072485,0.006836,-0.009796,-1.064133,0.009378,0.009434,0.005511,0.999940,0.005599,-0.009377,-0.005510,0.999940,0.009434,0.009430,-0.009382,0.999912,0.009377,-0.009434,-0.999912,0.000312,0.002583,-0.060269,0.003117,0.005541,0.006903,345.779358,350.242157,-1.000000,0.000000,0.000000
482148610.082081,0.006836,-0.009796,-1.064133,0.009323,0.009508,0.005554,0.999941,0.005642,-0.009323,-0.005553,0.999939,0.009508,0.009376,-0.009456,0.999911,0.009323,-0.009508,-0.999911,0.000519,-0.003294,-0.060285,-0.000585,-0.006033,0.006868,345.779358,350.242157,-1.000000,0.000000,0.000000
482148610.094212,0.015778,-0.010956,-1.064072,0.009323,0.009508,0.005554,0.999941,0.005642,-0.009323,-0.005553,0.999939,0.009508,0.009376,-0.009456,0.999911,0.009323,-0.009508,-0.999911,0.000519,-0.003294,-0.060285,-0.000585,-0.006033,0.006868,345.779358,350.242157,-1.000000,0.000000,0.000000
482148610.102434,0.010757,-0.008850,-1.062149,0.009394,0.009585,0.005651,0.999939,0.005740,-0.009393,-0.005650,0.999938,0.009584,0.009448,-0.009531,0.999910,0.009393,-0.009584,-0.999910,0.004401,-0.003294,-0.059279,0.003146,0.000850,-0.001722,345.779358,350.242157,-1.000000,0.000000,0.000000
482148610.111904,0.013733,-0.008926,-1.064087,0.009312,0.009566,0.005604,0.999940,0.005693,-0.009311,-0.005604,0.999939,0.009565,0.009365,-0.009513,0.999911,0.009311,-0.009565,-0.999911,-0.002475,-0.000231,-0.064222,-0.002998,-0.002722,-0.009142,345.777802,350.240601,-1.000000,0.000000,0.000000
482148610.123104,0.003906,-0.011734,-1.063156,0.009463,0.009515,0.005624,0.999939,0.005713,-0.009462,-0.005623,0.999939,0.009515,0.009516,-0.009462,0.999910,0.009462,-0.009515,-0.999910,0.001295,0.000665,-0.062239,0.000674,-0.000311,-0.000504,345.777802,350.240601,-1.000000,0.000000,0.000000
482148610.132865,0.009766,-0.008850,-1.063126,0.009463,0.009515,0.005624,0.999939,0.005713,-0.009462,-0.005623,0.999939,0.009515,0.009516,-0.009462,0.999910,0.009462,-0.009515,-0.999910,0.001295,0.000665,-0.062239,0.000674,-0.000311,-0.000504,345.777802,350.240601,-1.000000,0.000000,0.000000
482148610.142447,0.010727,-0.007858,-1.061157,0.009476,0.009488,0.005630,0.999939,0.005720,-0.009475,-0.005630,0.999939,0.009488,0.009529,-0.009434,0.999910,0.009475,-0.009488,-0.999910,0.004258,0.000562,-0.064177,-0.004256,-0.003819,-0.001763,345.777802,350.240601,-1.000000,0.000000,0.000000
482148610.152634,0.011902,-0.013901,-1.067047,0.009333,0.009455,0.005711,0.999940,0.005799,-0.009333,-0.005711,0.999939,0.009455,0.009387,-0.009401,0.999912,0.009333,-0.009455,-0.999912,0.000433,0.000605,-0.063214,-0.006742,-0.000322,0.004387,345.777802,350.240601,-1.000000,0.000000,0.000000
482148610.162616,0.009766,-0.008850,-1.064117,0.009333,0.009455,0.005711,0.999940,0.005799,-0.009333,-0.005711,0.999939,0.009455,0.009387,-0.009401,0.999912,0.009333,-0.009455,-0.999912,0.000433,0.000605,-0.063214,-0.006742,-0.000322,0.004387,345.777802,350.240601,-1.000000,0.000000,0.000000
482148610.172518,0.010757,-0.008835,-1.060181,0.009340,0.009429,0.005712,0.999940,0.005800,-0.009339,-0.005712,0.999939,0.009429,0.009393,-0.009375,0.999912,0.009339,-0.009429,-0.999912,0.001388,0.001571,-0.061245,0.004382,0.002003,-0.002945,345.775848,350.238647,-1.000000,0.000000,0.000000
482148610.183474,0.011810,-0.011887,-1.064102,0.009402,0.009506,0.005827,0.999938,0.005917,-0.009401,-0.005827,0.999938,0.009506,0.009457,-0.009450,0.999911,0.009401,-0.009506,-0.999911,0.002501,-0.004395,-0.067136,-0.000559,-0.002629,-0.000513,345.775848,350.238647,-1.000000,0.000000,0.000000
482148610.191912,0.011810,-0.011887,-1.064102,0.009402,0.009506,0.005827,0.999938,0.005917,-0.009401,-0.005827,0.999938,0.009506,0.009457,-0.009450,0.999911,0.009401,-0.009506,-0.999911,0.002501,-0.004395,-0.067136,-0.000559,-0.002629,-0.000513,345.775848,350.238647,-1.000000,0.000000,0.000000
482148610.201929,0.011765,-0.009903,-1.064102,0.009383,0.009472,0.005877,0.999938,0.005965,-0.009382,-0.005876,0.999938,0.009472,0.009438,-0.009416,0.999911,0.009382,-0.009472,-0.999911,0.000383,0.000622,-0.064206,-0.000575,-0.001432,0.004413,345.775848,350.238647,-1.000000,0.000000,0.000000
482148610.214839,0.008881,-0.012817,-1.064117,0.009413,0.009396,0.005944,0.999938,0.006033,-0.009412,-0.005944,0.999938,0.009396,0.009468,-0.009340,0.999912,0.009412,-0.009396,-0.999912,0.002398,-0.002490,-0.064191,-0.001824,0.000911,0.009335,345.775848,350.238647,-1.000000,0.000000,0.000000
482148610.222608,0.008881,-0.012817,-1.064117,0.009413,0.009396,0.005944,0.999938,0.006033,-0.009412,-0.005944,0.999938,0.009396,0.009468,-0.009340,0.999912,0.009412,-0.009396,-0.999912,0.002398,-0.002490,-0.064191,-0.001824,0.000911,0.009335,345.774536,350.237335,-1.000000,0.000000,0.000000
482148610.232413,0.006729,-0.006790,-1.059219,0.009452,0.009443,0.005969,0.999937,0.006058,-0.009452,-0.005969,0.999938,0.009443,0.009508,-0.009386,0.999911,0.009452,-0.009443,-0.999911,0.002313,-0.000460,-0.064191,0.005592,0.000923,0.004445,345.774536,350.237335,-1.000000,0.000000,0.000000
482148610.242434,0.011856,-0.011932,-1.069977,0.009323,0.009443,0.006026,0.999938,0.006113,-0.009323,-0.006025,0.999937,0.009443,0.009380,-0.009386,0.999912,0.009323,-0.009443,-0.999912,-0.000442,-0.003374,-0.064205,-0.000560,-0.002629,-0.000513,345.774536,350.237335,-1.000000,0.000000,0.000000
482148610.253822,0.009796,-0.010818,-1.062164,0.009323,0.009443,0.006026,0.999938,0.006113,-0.009323,-0.006025,0.999937,0.009443,0.009380,-0.009386,0.999912,0.009323,-0.009443,-0.999912,-0.000442,-0.003374,-0.064205,-0.000560,-0.002629,-0.000513,345.774536,350.237335,-1.000000,0.000000,0.000000
482148610.262268,0.006821,-0.008789,-1.063141,0.009242,0.009440,0.006033,0.999939,0.006120,-0.009242,-0.006033,0.999937,0.009440,0.009299,-0.009383,0.999913,0.009242,-0.009440,-0.999913,-0.002513,0.002650,-0.059307,0.005610,-0.001442,-0.001715,345.774536,350.237335,-1.000000,0.000000,0.000000
482148610.272574,0.011795,-0.010880,-1.063110,0.009249,0.009432,0.006125,0.999938,0.006211,-0.009248,-0.006124,0.999937,0.009432,0.009306,-0.009375,0.999913,0.009248,-0.009432,-0.999913,0.002608,-0.002501,-0.070064,-0.003046,-0.001440,0.005632,345.772949,350.235748,-1.000000,0.000000,0.000000
482148610.283775,0.006744,-0.005829,-1.064117,0.009262,0.009477,0.006173,0.999938,0.006261,-0.009261,-0.006173,0.999936,0.009477,0.009320,-0.009419,0.999912,0.009261,-0.009477,-0.999912,0.000535,-0.001341,-0.062252,0.003130,0.003202,0.003206,345.772949,350.235748,-1.000000,0.000000,0.000000
482148610.292600,0.013840,-0.013885,-1.061142,0.009262,0.009477,0.006173,0.999938,0.006261,-0.009261,-0.006173,0.999936,0.009477,0.009320,-0.009419,0.999912,0.009261,-0.009477,-0.999912,0.000535,-0.001341,-0.062252,0.003130,0.003202,0.003206,345.772949,350.235748,-1.000000,0.000000,0.000000
482148610.303106,0.013840,-0.013885,-1.061142,0.009206,0.009583,0.006259,0.999937,0.006347,-0.009206,-0.006259,0.999934,0.009583,0.009266,-0.009525,0.999912,0.009206,-0.009583,-0.999912,0.002589,-0.001297,-0.063199,0.005591,0.000920,0.004444,345.772949,350.235748,-1.000000,0.000000,0.000000
482148610.314085,0.005844,-0.009781,-1.063141,0.009206,0.009583,0.006259,0.999937,0.006347,-0.009206,-0.006259,0.999934,0.009583,0.009266,-0.009525,0.999912,0.009206,-0.009583,-0.999912,0.002589,-0.001297,-0.063199,0.005591,0.000920,0.004444,345.772949,350.235748,-1.000000,0.000000,0.000000
482148610.322362,0.011826,-0.011902,-1.066055,0.009193,0.009541,0.006314,0.999937,0.006402,-0.009193,-0.006314,0.999935,0.009541,0.009253,-0.009482,0.999912,0.009193,-0.009541,-0.999912,-0.002449,0.003712,-0.064205,0.003121,0.008995,0.005677,345.771912,350.234711,-1.000000,0.000000,0.000000
482148610.332515,0.008835,-0.011810,-1.061172,0.009198,0.009597,0.006387,0.999937,0.006475,-0.009198,-0.006387,0.999934,0.009597,0.009259,-0.009538,0.999912,0.009198,-0.009597,-0.999912,0.004642,-0.004288,-0.061230,0.000640,-0.006001,0.009335,345.771912,350.234711,-1.000000,0.000000,0.000000
482148610.342583,0.011871,-0.013870,-1.063110,0.009068,0.009573,0.006443,0.999938,0.006530,-0.009067,-0.006443,0.999933,0.009573,0.009129,-0.009513,0.999913,0.009067,-0.009573,-0.999913,-0.003223,-0.000208,-0.063228,-0.001819,-0.006041,0.006862,345.771912,350.234711,-1.000000,0.000000,0.000000
482148610.352453,0.011719,-0.007904,-1.064102,0.009068,0.009573,0.006443,0.999938,0.006530,-0.009067,-0.006443,0.999933,0.009573,0.009129,-0.009513,0.999913,0.009067,-0.009573,-0.999913,-0.003223,-0.000208,-0.063228,-0.001819,-0.006041,0.006862,345.771912,350.234711,-1.000000,0.000000,0.000000
482148610.362568,0.008865,-0.010849,-1.068039,0.009102,0.009639,0.006421,0.999937,0.006508,-0.009102,-0.006421,0.999933,0.009638,0.009164,-0.009579,0.999912,0.009102,-0.009638,-0.999912,-0.000267,-0.002172,-0.061260,-0.003046,-0.002596,0.005630,345.771912,350.234711,-1.000000,0.000000,0.000000
482148610.372630,0.006836,-0.009796,-1.063141,0.009138,0.009680,0.006464,0.999937,0.006552,-0.009137,-0.006463,0.999932,0.009680,0.009200,-0.009620,0.999911,0.009137,-0.009680,-0.999911,0.002734,-0.004190,-0.063199,-0.003040,0.000859,0.004405,345.772278,350.235077,-1.000000,0.000000,0.000000
482148610.382636,0.015839,-0.012970,-1.066025,0.009138,0.009680,0.006464,0.999937,0.006552,-0.009137,-0.006463,0.999932,0.009680,0.009200,-0.009620,0.999911,0.009137,-0.009680,-0.999911,0.002734,-0.004190,-0.063199,-0.003040,0.000859,0.004405,345.772278,350.235077,-1.000000,0.000000,0.000000
482148610.392591,0.009674,-0.005875,-1.062149,0.009128,0.009584,0.006490,0.999937,0.006577,-0.009128,-0.006489,0.999933,0.009583,0.009190,-0.009524,0.999912,0.009128,-0.009583,-0.999912,-0.000263,-0.001266,-0.068127,-0.001800,-0.003772,0.001941,345.772278,350.235077,-1.000000,0.000000,0.000000
482148610.402665,0.007858,-0.011826,-1.065094,0.009074,0.009583,0.006491,0.999937,0.006578,-0.009074,-0.006491,0.999933,0.009583,0.009136,-0.009523,0.999913,0.009074,-0.009583,-0.999913,-0.002238,-0.000213,-0.063228,0.001917,0.001985,-0.002957,345.772278,350.235077,-1.000000,0.000000,0.000000
482148610.412022,0.007858,-0.011826,-1.065094,0.009074,0.009583,0.006491,0.999937,0.006578,-0.009074,-0.006491,0.999933,0.009583,0.009136,-0.009523,0.999913,0.009074,-0.009583,-0.999913,-0.002238,-0.000213,-0.063228,0.001917,0.001985,-0.002957,345.772278,350.235077,-1.000000,0.000000,0.000000
482148610.422459,0.007751,-0.007828,-1.064117,0.009241,0.009550,0.006493,0.999936,0.006581,-0.009240,-0.006492,0.999933,0.009550,0.009302,-0.009490,0.999912,0.009240,-0.009550,-0.999912,0.006599,-0.003420,-0.066113,-0.003042,0.005490,0.005643,345.772614,350.235413,-1.000000,0.000000,0.000000
482148610.432536,0.007843,-0.011810,-1.063126,0.009202,0.009510,0.006506,0.999936,0.006593,-0.009201,-0.006505,0.999934,0.009510,0.009263,-0.009449,0.999912,0.009201,-0.009510,-0.999912,0.000473,0.003635,-0.062237,0.006836,-0.003720,0.000749,345.772614,350.235413,-1.000000,0.000000,0.000000
482148610.443899,0.008789,-0.008835,-1.063126,0.009202,0.009510,0.006506,0.999936,0.006593,-0.009201,-0.006505,0.999934,0.009510,0.009263,-0.009449,0.999912,0.009201,-0.009510,-0.999912,0.000473,0.003635,-0.062237,0.006836,-0.003720,0.000749,345.772614,350.235413,-1.000000,0.000000,0.000000
482148610.452235,0.013763,-0.011887,-1.058212,0.009119,0.009505,0.006556,0.999936,0.006643,-0.009119,-0.006556,0.999933,0.009505,0.009181,-0.009445,0.999913,0.009119,-0.009505,-0.999913,-0.001367,0.001677,-0.064204,-0.004275,-0.001459,0.004395,345.772614,350.235413,-1.000000,0.000000,0.000000
482148610.462547,0.009720,-0.007828,-1.060196,0.009111,0.009512,0.006540,0.999937,0.006626,-0.009111,-0.006539,0.999933,0.009512,0.009173,-0.009452,0.999913,0.009111,-0.009512,-0.999913,-0.001268,-0.002298,-0.063212,-0.001787,0.001969,-0.001743,345.772614,350.235413,-1.000000,0.000000,0.000000
482148610.472581,0.012756,-0.009888,-1.060165,0.009142,0.009476,0.006547,0.999936,0.006634,-0.009141,-0.006547,0.999934,0.009476,0.009204,-0.009415,0.999913,0.009141,-0.009476,-0.999913,0.004622,-0.002411,-0.058299,-0.004258,0.000809,-0.000525,345.772614,350.235413,-1.000000,0.000000,0.000000
482148610.482736,0.010788,-0.009872,-1.064102,0.009142,0.009476,0.006547,0.999936,0.006634,-0.009141,-0.006547,0.999934,0.009476,0.009204,-0.009415,0.999913,0.009141,-0.009476,-0.999913,0.004622,-0.002411,-0.058299,-0.004258,0.000809,-0.000525,345.770447,350.233246,-1.000000,0.000000,0.000000
482148610.492545,0.010773,-0.008865,-1.063110,0.009101,0.009431,0.006578,0.999936,0.006664,-0.009100,-0.006578,0.999934,0.009431,0.009162,-0.009370,0.999914,0.009100,-0.009431,-0.999914,0.000620,0.001603,-0.060282,-0.003050,-0.003738,0.006859,345.770447,350.233246,-1.000000,0.000000,0.000000
482148610.503293,0.006836,-0.008804,-1.065109,0.009134,0.009501,0.006628,0.999936,0.006714,-0.009134,-0.006627,0.999933,0.009501,0.009197,-0.009440,0.999913,0.009134,-0.009501,-0.999913,0.003622,-0.000386,-0.060252,0.003144,-0.003767,-0.001730,345.770447,350.233246,-1.000000,0.000000,0.000000
482148610.512958,0.006836,-0.008804,-1.065109,0.009134,0.009501,0.006628,0.999936,0.006714,-0.009134,-0.006627,0.999933,0.009501,0.009197,-0.009440,0.999913,0.009134,-0.009501,-0.999913,0.003622,-0.000386,-0.060252,0.003144,-0.003767,-0.001730,345.770447,350.233246,-1.000000,0.000000,0.000000
482148610.523564,0.006912,-0.012772,-1.064133,0.009150,0.009467,0.006587,0.999936,0.006673,-0.009150,-0.006586,0.999933,0.009467,0.009212,-0.009406,0.999913,0.009150,-0.009467,-0.999913,0.001638,-0.000405,-0.064189,0.000670,0.000856,0.000728,345.770447,350.233246,-1.000000,0.000000,0.000000
482148610.531834,0.011795,-0.011871,-1.061157,0.009194,0.009372,0.006637,0.999935,0.006723,-0.009194,-0.006637,0.999934,0.009371,0.009256,-0.009310,0.999914,0.009194,-0.009371,-0.999914,-0.002358,0.000567,-0.065195,-0.001812,0.005498,0.005648,345.767365,350.230164,-1.000000,0.000000,0.000000
482148610.542565,0.009827,-0.011841,-1.064117,0.009194,0.009372,0.006637,0.999935,0.006723,-0.009194,-0.006637,0.999934,0.009371,0.009256,-0.009310,0.999914,0.009194,-0.009371,-0.999914,-0.002358,0.000567,-0.065195,-0.001812,0.005498,0.005648,345.767365,350.230164,-1.000000,0.000000,0.000000
482148610.552237,0.013779,-0.009964,-1.068008,0.009168,0.009399,0.006717,0.999935,0.006803,-0.009167,-0.006716,0.999933,0.009399,0.009230,-0.009337,0.999914,0.009167,-0.009399,-0.999914,-0.002255,-0.003373,-0.064219,-0.003052,0.006664,0.008106,345.767365,350.230164,-1.000000,0.000000,0.000000
482148610.562850,0.010880,-0.013809,-1.060181,0.009298,0.009437,0.006809,0.999933,0.006896,-0.009297,-0.006808,0.999932,0.009437,0.009361,-0.009373,0.999912,0.009297,-0.009437,-0.999912,0.000530,-0.002404,-0.064205,-0.003036,0.002004,0.003175,345.767365,350.230164,-1.000000,0.000000,0.000000
482148610.571889,0.008759,-0.007843,-1.064117,0.009298,0.009437,0.006809,0.999933,0.006896,-0.009297,-0.006808,0.999932,0.009437,0.009361,-0.009373,0.999912,0.009297,-0.009437,-0.999912,0.000530,-0.002404,-0.064205,-0.003036,0.002004,0.003175,345.767365,350.230164,-1.000000,0.000000,0.000000
482148610.582395,0.010925,-0.015823,-1.061157,0.009363,0.009454,0.006827,0.999932,0.006915,-0.009362,-0.006827,0.999932,0.009454,0.009427,-0.009389,0.999911,0.009362,-0.009454,-0.999911,0.004416,-0.000510,-0.068097,-0.000565,0.000858,0.001953,345.763763,350.226562,-1.000000,0.000000,0.000000
482148610.592407,0.007797,-0.008835,-1.066071,0.009380,0.009577,0.006853,0.999932,0.006942,-0.009379,-0.006852,0.999931,0.009577,0.009445,-0.009512,0.999910,0.009379,-0.009577,-0.999910,0.001500,-0.004233,-0.060271,0.003138,-0.004900,0.000730,345.763763,350.226562,-1.000000,0.000000,0.000000
482148610.603758,0.006805,-0.008759,-1.060211,0.009380,0.009577,0.006853,0.999932,0.006942,-0.009379,-0.006852,0.999931,0.009577,0.009445,-0.009512,0.999910,0.009379,-0.009577,-0.999910,0.001500,-0.004233,-0.060271,0.003138,-0.004900,0.000730,345.763763,350.226562,-1.000000,0.000000,0.000000
482148610.613011,0.006805,-0.008759,-1.060211,0.009355,0.009499,0.006884,0.999932,0.006972,-0.009354,-0.006884,0.999931,0.009499,0.009420,-0.009434,0.999911,0.009354,-0.009499,-0.999911,-0.000596,0.001656,-0.064206,-0.004269,0.000842,0.003167,345.763763,350.226562,-1.000000,0.000000,0.000000
482148610.622287,0.013733,-0.009903,-1.060165,0.009333,0.009613,0.006904,0.999932,0.006993,-0.009332,-0.006904,0.999930,0.009613,0.009399,-0.009548,0.999910,0.009332,-0.009613,-0.999910,-0.001535,0.000778,-0.066160,0.000682,0.000835,-0.001735,345.763763,350.226562,-1.000000,0.000000,0.000000
482148610.632424,0.007858,-0.012772,-1.060196,0.009333,0.009613,0.006904,0.999932,0.006993,-0.009332,-0.006904,0.999930,0.009613,0.009399,-0.009548,0.999910,0.009332,-0.009613,-0.999910,-0.001535,0.000778,-0.066160,0.000682,0.000835,-0.001735,345.760071,350.222870,-1.000000,0.000000,0.000000
482148610.642523,0.011734,-0.008881,-1.062149,0.009313,0.009577,0.006936,0.999932,0.007024,-0.009313,-0.006935,0.999930,0.009577,0.009379,-0.009511,0.999911,0.009313,-0.009577,-0.999911,-0.002507,0.000818,-0.060300,0.001900,0.005503,0.003202,345.760071,350.222870,-1.000000,0.000000,0.000000
482148610.652448,0.005981,-0.013779,-1.067078,0.009331,0.009568,0.007015,0.999931,0.007104,-0.009330,-0.007014,0.999930,0.009568,0.009398,-0.009502,0.999911,0.009330,-0.009568,-0.999911,0.004402,-0.000335,-0.060255,-0.000570,-0.007215,0.003171,345.760071,350.222870,-1.000000,0.000000,0.000000
482148610.662517,0.011780,-0.008926,-1.068024,0.009314,0.009634,0.007022,0.999931,0.007111,-0.009313,-0.007022,0.999929,0.009634,0.009381,-0.009568,0.999910,0.009313,-0.009634,-0.999910,-0.001455,-0.003137,-0.060286,0.004378,0.002025,-0.000485,345.760071,350.222870,-1.000000,0.000000,0.000000
482148610.672617,0.003769,-0.006760,-1.062180,0.009314,0.009634,0.007022,0.999931,0.007111,-0.009313,-0.007022,0.999929,0.009634,0.009381,-0.009568,0.999910,0.009313,-0.009634,-0.999910,-0.001455,-0.003137,-0.060286,0.004378,0.002025,-0.000485,345.760071,350.222870,-1.000000,0.000000,0.000000
482148610.682317,0.011780,-0.010849,-1.060181,0.009269,0.009650,0.007043,0.999932,0.007132,-0.009269,-0.007042,0.999929,0.009650,0.009337,-0.009584,0.999910,0.009269,-0.009650,-0.999910,-0.003287,-0.004128,-0.067167,0.000671,0.000865,0.001958,345.760071,350.222870,-1.000000,0.000000,0.000000
482148610.693482,0.009628,-0.002930,-1.065079,0.009311,0.009615,0.007127,0.999931,0.007216,-0.009310,-0.007127,0.999928,0.009615,0.009379,-0.009548,0.999910,0.009310,-0.009615,-0.999910,0.002470,0.000688,-0.068113,-0.001816,0.002055,0.008104,345.757599,350.220398,-1.000000,0.000000,0.000000
482148610.706473,0.012787,-0.008942,-1.067032,0.009279,0.009574,0.007262,0.999930,0.007350,-0.009278,-0.007261,0.999928,0.009573,0.009348,-0.009505,0.999911,0.009278,-0.009573,-0.999911,0.002501,-0.001276,-0.060270,0.001885,-0.006014,0.006877,345.757599,350.220398,-1.000000,0.000000,0.000000
482148610.735175,0.009827,-0.011841,-1.063126,0.009380,0.009479,0.007270,0.999929,0.007359,-0.009379,-0.007270,0.999929,0.009479,0.009448,-0.009410,0.999911,0.009379,-0.009479,-0.999911,0.003408,0.000537,-0.067121,0.005592,0.002075,0.004445,345.756775,350.219574,-1.000000,0.000000,0.000000
482148610.742351,0.009827,-0.011841,-1.063126,0.009380,0.009479,0.007270,0.999929,0.007359,-0.009379,-0.007270,0.999929,0.009479,0.009448,-0.009410,0.999911,0.009379,-0.009479,-0.999911,0.003408,0.000537,-0.067121,0.005592,0.002075,0.004445,345.756775,350.219574,-1.000000,0.000000,0.000000
482148610.752842,0.009659,-0.004883,-1.063110,0.009395,0.009463,0.007277,0.999929,0.007366,-0.009395,-0.007277,0.999929,0.009463,0.009464,-0.009394,0.999911,0.009395,-0.009463,-0.999911,0.000386,0.000598,-0.066159,-0.001789,0.001971,-0.001744,345.756775,350.219574,-1.000000,0.000000,0.000000
482148610.762516,0.008713,-0.006836,-1.060181,0.009395,0.009463,0.007277,0.999929,0.007366,-0.009395,-0.007277,0.999929,0.009463,0.009464,-0.009394,0.999911,0.009395,-0.009463,-0.999911,0.000386,0.000598,-0.066159,-0.001789,0.001971,-0.001744,345.756775,350.219574,-1.000000,0.000000,0.000000
482148610.772384,0.011871,-0.013870,-1.064102,0.009448,0.009512,0.007339,0.999928,0.007428,-0.009447,-0.007338,0.999928,0.009512,0.009517,-0.009442,0.999910,0.009447,-0.009512,-0.999910,0.000380,-0.002329,-0.063215,-0.003033,0.000840,0.001941,345.756775,350.219574,-1.000000,0.000000,0.000000
