Timestamp,Accel_X,Accel_Y,Accel_Z,Roll,Pitch,Yaw,RM11,RM12,RM13,RM21,RM22,RM23,RM31,RM32,RM33,GravAcc_X,GravAcc_Y,GravAcc_Z,UserAcc_X,UserAcc_Y,UserAcc_Z,RotRate_X,RotRate_Y,RotRate_Z,MagHeading,TrueHeading,HeadingAccuracy,Course,Speed
482149605.299512,0.005905,-0.011780,-1.066086,0.009878,0.009336,0.005139,0.999938,0.005231,-0.009877,-0.005138,0.999943,0.009336,0.009926,-0.009285,0.999908,0.009877,-0.009336,-0.999908,0.001918,-0.001544,-0.064195,0.000069,-0.000766,0.000051,346.512604,350.975403,-1.000000,0.000000,0.000000
482149605.304549,0.005905,-0.011780,-1.066086,0.009878,0.009336,0.005139,0.999938,0.005231,-0.009877,-0.005138,0.999943,0.009336,0.009926,-0.009285,0.999908,0.009877,-0.009336,-0.999908,0.001918,-0.001544,-0.064195,0.000069,-0.000766,0.000051,346.512604,350.975403,-1.000000,0.000000,0.000000
482149605.313161,0.005905,-0.011780,-1.066086,0.009878,0.009336,0.005139,0.999938,0.005231,-0.009877,-0.005138,0.999943,0.009336,0.009926,-0.009285,0.999908,0.009877,-0.009336,-0.999908,0.001918,-0.001544,-0.064195,0.000069,-0.000766,0.000051,346.512604,350.975403,-1.000000,0.000000,0.000000
482149605.328487,0.020737,-0.010101,-1.066971,0.009878,0.009336,0.005139,0.999938,0.005231,-0.009877,-0.005138,0.999943,0.009336,0.009926,-0.009285,0.999908,0.009877,-0.009336,-0.999908,0.001918,-0.001544,-0.064195,0.000069,-0.000766,0.000051,346.512604,350.975403,-1.000000,0.000000,0.000000
482149605.334228,0.013641,-0.002075,-1.073868,0.009878,0.009336,0.005139,0.999938,0.005231,-0.009877,-0.005138,0.999943,0.009336,0.009926,-0.009285,0.999908,0.009877,-0.009336,-0.999908,0.001918,-0.001544,-0.064195,0.000069,-0.000766,0.000051,346.512604,350.975403,-1.000000,0.000000,0.000000
482149605.343930,0.017578,-0.005005,-1.059143,0.009878,0.009336,0.005139,0.999938,0.005231,-0.009877,-0.005138,0.999943,0.009336,0.009926,-0.009285,0.999908,0.009877,-0.009336,-0.999908,0.001918,-0.001544,-0.064195,0.000069,-0.000766,0.000051,346.512604,350.975403,-1.000000,0.000000,0.000000
482149605.354092,-0.010117,-0.001633,-1.075989,0.009878,0.009336,0.005139,0.999938,0.005231,-0.009877,-0.005138,0.999943,0.009336,0.009926,-0.009285,0.999908,0.009877,-0.009336,-0.999908,0.001918,-0.001544,-0.064195,0.000069,-0.000766,0.000051,346.512604,350.975403,-1.000000,0.000000,0.000000
482149605.364294,0.021545,-0.006058,-1.054214,0.009878,0.009336,0.005139,0.999938,0.005231,-0.009877,-0.005138,0.999943,0.009336,0.009926,-0.009285,0.999908,0.009877,-0.009336,-0.999908,0.001918,-0.001544,-0.064195,0.000069,-0.000766,0.000051,346.512604,350.975403,-1.000000,0.000000,0.000000
482149605.376029,0.031647,-0.011276,-1.065903,0.009878,0.009336,0.005139,0.999938,0.005231,-0.009877,-0.005138,0.999943,0.009336,0.009926,-0.009285,0.999908,0.009877,-0.009336,-0.999908,0.001918,-0.001544,-0.064195,0.000069,-0.000766,0.000051,346.512604,350.975403,-1.000000,0.000000,0.000000
482149605.383760,0.008820,-0.011795,-1.059219,0.009878,0.009336,0.005139,0.999938,0.005231,-0.009877,-0.005138,0.999943,0.009336,0.009926,-0.009285,0.999908,0.009877,-0.009336,-0.999908,0.001918,-0.001544,-0.064195,0.000069,-0.000766,0.000051,346.512604,350.975403,-1.000000,0.000000,0.000000
482149605.394337,0.023727,-0.012115,-1.063019,0.009878,0.009336,0.005139,0.999938,0.005231,-0.009877,-0.005138,0.999943,0.009336,0.009926,-0.009285,0.999908,0.009877,-0.009336,-0.999908,0.001918,-0.001544,-0.064195,0.000069,-0.000766,0.000051,346.512604,350.975403,-1.000000,0.000000,0.000000
482149605.403988,0.005020,-0.017685,-1.059250,0.009878,0.009336,0.005139,0.999938,0.005231,-0.009877,-0.005138,0.999943,0.009336,0.009926,-0.009285,0.999908,0.009877,-0.009336,-0.999908,0.001918,-0.001544,-0.064195,0.000069,-0.000766,0.000051,346.512604,350.975403,-1.000000,0.000000,0.000000
482149605.414202,-0.029892,-0.007111,-1.066345,0.009878,0.009336,0.005139,0.999938,0.005231,-0.009877,-0.005138,0.999943,0.009336,0.009926,-0.009285,0.999908,0.009877,-0.009336,-0.999908,0.001918,-0.001544,-0.064195,0.000069,-0.000766,0.000051,346.512604,350.975403,-1.000000,0.000000,0.000000
482149605.426975,0.007797,-0.009827,-1.063126,0.009878,0.009336,0.005139,0.999938,0.005231,-0.009877,-0.005138,0.999943,0.009336,0.009926,-0.009285,0.999908,0.009877,-0.009336,-0.999908,0.001918,-0.001544,-0.064195,0.000069,-0.000766,0.000051,346.512604,350.975403,-1.000000,0.000000,0.000000
482149605.433312,0.007797,-0.009827,-1.063126,0.009878,0.009336,0.005139,0.999938,0.005231,-0.009877,-0.005138,0.999943,0.009336,0.009926,-0.009285,0.999908,0.009877,-0.009336,-0.999908,0.001918,-0.001544,-0.064195,0.000069,-0.000766,0.000051,346.512604,350.975403,-1.000000,0.000000,0.000000
482149605.443998,0.020645,-0.009018,-1.057159,0.009878,0.009336,0.005139,0.999938,0.005231,-0.009877,-0.005138,0.999943,0.009336,0.009926,-0.009285,0.999908,0.009877,-0.009336,-0.999908,0.001918,-0.001544,-0.064195,0.000069,-0.000766,0.000051,346.512604,350.975403,-1.000000,0.000000,0.000000
482149605.453905,-0.006119,-0.004639,-1.072052,0.009878,0.009336,0.005139,0.999938,0.005231,-0.009877,-0.005138,0.999943,0.009336,0.009926,-0.009285,0.999908,0.009877,-0.009336,-0.999908,0.001918,-0.001544,-0.064195,0.000069,-0.000766,0.000051,346.512604,350.975403,-1.000000,0.000000,0.000000
482149605.468875,-0.051727,-0.008636,-1.059662,0.009878,0.009336,0.005139,0.999938,0.005231,-0.009877,-0.005138,0.999943,0.009336,0.009926,-0.009285,0.999908,0.009877,-0.009336,-0.999908,0.001918,-0.001544,-0.064195,0.000069,-0.000766,0.000051,346.512604,350.975403,-1.000000,0.000000,0.000000
482149605.480416,0.008713,-0.006836,-1.060181,0.009878,0.009336,0.005139,0.999938,0.005231,-0.009877,-0.005138,0.999943,0.009336,0.009926,-0.009285,0.999908,0.009877,-0.009336,-0.999908,0.001918,-0.001544,-0.064195,0.000069,-0.000766,0.000051,346.512604,350.975403,-1.000000,0.000000,0.000000
482149605.483221,-0.004105,-0.005676,-1.071060,0.009878,0.009336,0.005139,0.999938,0.005231,-0.009877,-0.005138,0.999943,0.009336,0.009926,-0.009285,0.999908,0.009877,-0.009336,-0.999908,0.001918,-0.001544,-0.064195,0.000069,-0.000766,0.000051,346.512604,350.975403,-1.000000,0.000000,0.000000
482149605.493987,0.018661,-0.009964,-1.055222,0.009878,0.009336,0.005139,0.999938,0.005231,-0.009877,-0.005138,0.999943,0.009336,0.009926,-0.009285,0.999908,0.009877,-0.009336,-0.999908,0.001918,-0.001544,-0.064195,0.000069,-0.000766,0.000051,346.512604,350.975403,-1.000000,0.000000,0.000000
482149605.503658,0.032364,-0.001358,-1.061981,0.009878,0.009336,0.005139,0.999938,0.005231,-0.009877,-0.005138,0.999943,0.009336,0.009926,-0.009285,0.999908,0.009877,-0.009336,-0.999908,0.001918,-0.001544,-0.064195,0.000069,-0.000766,0.000051,346.512604,350.975403,-1.000000,0.000000,0.000000
482149605.513606,0.014542,-0.001022,-1.063065,0.009878,0.009336,0.005139,0.999938,0.005231,-0.009877,-0.005138,0.999943,0.009336,0.009926,-0.009285,0.999908,0.009877,-0.009336,-0.999908,0.001918,-0.001544,-0.064195,0.000069,-0.000766,0.000051,346.512604,350.975403,-1.000000,0.000000,0.000000
482149605.529259,0.007782,-0.008820,-1.063126,0.009878,0.009336,0.005139,0.999938,0.005231,-0.009877,-0.005138,0.999943,0.009336,0.009926,-0.009285,0.999908,0.009877,-0.009336,-0.999908,0.001918,-0.001544,-0.064195,0.000069,-0.000766,0.000051,346.512604,350.975403,-1.000000,0.000000,0.000000
482149605.533591,-0.005219,-0.004578,-1.062256,0.009878,0.009336,0.005139,0.999938,0.005231,-0.009877,-0.005138,0.999943,0.009336,0.009926,-0.009285,0.999908,0.009877,-0.009336,-0.999908,0.001918,-0.001544,-0.064195,0.000069,-0.000766,0.000051,346.512604,350.975403,-1.000000,0.000000,0.000000
482149605.546813,-0.005219,-0.004578,-1.062256,0.009878,0.009336,0.005139,0.999938,0.005231,-0.009877,-0.005138,0.999943,0.009336,0.009926,-0.009285,0.999908,0.009877,-0.009336,-0.999908,0.001918,-0.001544,-0.064195,0.000069,-0.000766,0.000051,346.512604,350.975403,-1.000000,0.000000,0.000000
482149605.555363,0.040558,-0.011429,-1.063889,0.009878,0.009336,0.005139,0.999938,0.005231,-0.009877,-0.005138,0.999943,0.009336,0.009926,-0.009285,0.999908,0.009877,-0.009336,-0.999908,0.001918,-0.001544,-0.064195,0.000069,-0.000766,0.000051,346.512604,350.975403,-1.000000,0.000000,0.000000
482149605.563887,-0.005127,-0.008530,-1.059326,0.009878,0.009336,0.005139,0.999938,0.005231,-0.009877,-0.005138,0.999943,0.009336,0.009926,-0.009285,0.999908,0.009877,-0.009336,-0.999908,0.001918,-0.001544,-0.064195,0.000069,-0.000766,0.000051,346.512604,350.975403,-1.000000,0.000000,0.000000
482149605.581001,-0.009094,-0.005554,-1.067169,0.009878,0.009336,0.005139,0.999938,0.005231,-0.009877,-0.005138,0.999943,0.009336,0.009926,-0.009285,0.999908,0.009877,-0.009336,-0.999908,0.001918,-0.001544,-0.064195,0.000069,-0.000766,0.000051,346.512604,350.975403,-1.000000,0.000000,0.000000
482149605.583147,0.044601,-0.012573,-1.071701,0.009878,0.009336,0.005139,0.999938,0.005231,-0.009877,-0.005138,0.999943,0.009336,0.009926,-0.009285,0.999908,0.009877,-0.009336,-0.999908,0.001918,-0.001544,-0.064195,0.000069,-0.000766,0.000051,346.512604,350.975403,-1.000000,0.000000,0.000000
482149605.594621,0.023834,-0.018036,-1.056183,0.009878,0.009336,0.005139,0.999938,0.005231,-0.009877,-0.005138,0.999943,0.009336,0.009926,-0.009285,0.999908,0.009877,-0.009336,-0.999908,0.001918,-0.001544,-0.064195,0.000069,-0.000766,0.000051,346.512604,350.975403,-1.000000,0.000000,0.000000
482149605.604393,-0.003082,-0.008636,-1.067154,0.009878,0.009336,0.005139,0.999938,0.005231,-0.009877,-0.005138,0.999943,0.009336,0.009926,-0.009285,0.999908,0.009877,-0.009336,-0.999908,0.001918,-0.001544,-0.064195,0.000069,-0.000766,0.000051,346.512604,350.975403,-1.000000,0.000000,0.000000
482149605.613295,0.037811,-0.022278,-1.059982,0.009878,0.009336,0.005139,0.999938,0.005231,-0.009877,-0.005138,0.999943,0.009336,0.009926,-0.009285,0.999908,0.009877,-0.009336,-0.999908,0.001918,-0.001544,-0.064195,0.000069,-0.000766,0.000051,346.512604,350.975403,-1.000000,0.000000,0.000000
482149605.627467,0.037613,-0.012405,-1.067825,0.009878,0.009336,0.005139,0.999938,0.005231,-0.009877,-0.005138,0.999943,0.009336,0.009926,-0.009285,0.999908,0.009877,-0.009336,-0.999908,0.001918,-0.001544,-0.064195,0.000069,-0.000766,0.000051,346.512604,350.975403,-1.000000,0.000000,0.000000
482149605.633908,0.018814,-0.012054,-1.068954,0.009878,0.009336,0.005139,0.999938,0.005231,-0.009877,-0.005138,0.999943,0.009336,0.009926,-0.009285,0.999908,0.009877,-0.009336,-0.999908,0.001918,-0.001544,-0.064195,0.000069,-0.000766,0.000051,346.512604,350.975403,-1.000000,0.000000,0.000000
482149605.645652,-0.052795,-0.005630,-1.056717,0.009878,0.009336,0.005139,0.999938,0.005231,-0.009877,-0.005138,0.999943,0.009336,0.009926,-0.009285,0.999908,0.009877,-0.009336,-0.999908,0.001918,-0.001544,-0.064195,0.000069,-0.000766,0.000051,346.512604,350.975403,-1.000000,0.000000,0.000000
482149605.654046,-0.004120,-0.011490,-1.050476,0.009878,0.009336,0.005139,0.999938,0.005231,-0.009877,-0.005138,0.999943,0.009336,0.009926,-0.009285,0.999908,0.009877,-0.009336,-0.999908,0.001918,-0.001544,-0.064195,0.000069,-0.000766,0.000051,346.512604,350.975403,-1.000000,0.000000,0.000000
482149605.664094,-0.011948,-0.009506,-1.072113,0.009878,0.009336,0.005139,0.999938,0.005231,-0.009877,-0.005138,0.999943,0.009336,0.009926,-0.009285,0.999908,0.009877,-0.009336,-0.999908,0.001918,-0.001544,-0.064195,0.000069,-0.000766,0.000051,346.512604,350.975403,-1.000000,0.000000,0.000000
482149605.680009,-0.011948,-0.009506,-1.072113,0.009878,0.009336,0.005139,0.999938,0.005231,-0.009877,-0.005138,0.999943,0.009336,0.009926,-0.009285,0.999908,0.009877,-0.009336,-0.999908,0.001918,-0.001544,-0.064195,0.000069,-0.000766,0.000051,346.512604,350.975403,-1.000000,0.000000,0.000000
482149605.683867,-0.016815,-0.017242,-1.056473,0.009878,0.009336,0.005139,0.999938,0.005231,-0.009877,-0.005138,0.999943,0.009336,0.009926,-0.009285,0.999908,0.009877,-0.009336,-0.999908,0.001918,-0.001544,-0.064195,0.000069,-0.000766,0.000051,346.512604,350.975403,-1.000000,0.000000,0.000000
482149605.695201,0.028687,-0.010284,-1.071823,0.009878,0.009336,0.005139,0.999938,0.005231,-0.009877,-0.005138,0.999943,0.009336,0.009926,-0.009285,0.999908,0.009877,-0.009336,-0.999908,0.001918,-0.001544,-0.064195,0.000069,-0.000766,0.000051,346.512604,350.975403,-1.000000,0.000000,0.000000
482149605.704267,0.046432,-0.008560,-1.062851,0.009878,0.009336,0.005139,0.999938,0.005231,-0.009877,-0.005138,0.999943,0.009336,0.009926,-0.009285,0.999908,0.009877,-0.009336,-0.999908,0.001918,-0.001544,-0.064195,0.000069,-0.000766,0.000051,346.512604,350.975403,-1.000000,0.000000,0.000000
482149605.713948,-0.022873,-0.008286,-1.072189,0.009878,0.009336,0.005139,0.999938,0.005231,-0.009877,-0.005138,0.999943,0.009336,0.009926,-0.009285,0.999908,0.009877,-0.009336,-0.999908,0.001918,-0.001544,-0.064195,0.000069,-0.000766,0.000051,346.512604,350.975403,-1.000000,0.000000,0.000000
482149605.727853,0.046478,-0.008606,-1.068756,0.009878,0.009336,0.005139,0.999938,0.005231,-0.009877,-0.005138,0.999943,0.009336,0.009926,-0.009285,0.999908,0.009877,-0.009336,-0.999908,0.001918,-0.001544,-0.064195,0.000069,-0.000766,0.000051,346.512604,350.975403,-1.000000,0.000000,0.000000
482149605.733807,0.061401,-0.016708,-1.048050,0.009878,0.009336,0.005139,0.999938,0.005231,-0.009877,-0.005138,0.999943,0.009336,0.009926,-0.009285,0.999908,0.009877,-0.009336,-0.999908,0.001918,-0.001544,-0.064195,0.000069,-0.000766,0.000051,346.512604,350.975403,-1.000000,0.000000,0.000000
482149605.745348,0.002777,-0.002838,-1.072968,0.009878,0.009336,0.005139,0.999938,0.005231,-0.009877,-0.005138,0.999943,0.009336,0.009926,-0.009285,0.999908,0.009877,-0.009336,-0.999908,0.001918,-0.001544,-0.064195,0.000069,-0.000766,0.000051,346.512604,350.975403,-1.000000,0.000000,0.000000
482149605.753938,-0.066467,-0.008499,-1.079361,0.009878,0.009336,0.005139,0.999938,0.005231,-0.009877,-0.005138,0.999943,0.009336,0.009926,-0.009285,0.999908,0.009877,-0.009336,-0.999908,0.001918,-0.001544,-0.064195,0.000069,-0.000766,0.000051,346.512604,350.975403,-1.000000,0.000000,0.000000
482149605.764206,-0.000137,-0.011581,-1.052414,0.009878,0.009336,0.005139,0.999938,0.005231,-0.009877,-0.005138,0.999943,0.009336,0.009926,-0.009285,0.999908,0.009877,-0.009336,-0.999908,0.001918,-0.001544,-0.064195,0.000069,-0.000766,0.000051,346.512604,350.975403,-1.000000,0.000000,0.000000
482149605.777132,-0.000137,-0.011581,-1.052414,0.009878,0.009336,0.005139,0.999938,0.005231,-0.009877,-0.005138,0.999943,0.009336,0.009926,-0.009285,0.999908,0.009877,-0.009336,-0.999908,0.001918,-0.001544,-0.064195,0.000069,-0.000766,0.000051,346.512604,350.975403,-1.000000,0.000000,0.000000
482149605.783734,-0.047699,-0.005875,-1.079208,0.009878,0.009336,0.005139,0.999938,0.005231,-0.009877,-0.005138,0.999943,0.009336,0.009926,-0.009285,0.999908,0.009877,-0.009336,-0.999908,0.001918,-0.001544,-0.064195,0.000069,-0.000766,0.000051,346.512604,350.975403,-1.000000,0.000000,0.000000
482149605.794528,-0.037827,-0.006012,-1.070312,0.009878,0.009336,0.005139,0.999938,0.005231,-0.009877,-0.005138,0.999943,0.009336,0.009926,-0.009285,0.999908,0.009877,-0.009336,-0.999908,0.001918,-0.001544,-0.064195,0.000069,-0.000766,0.000051,346.512604,350.975403,-1.000000,0.000000,0.000000
482149605.804313,0.043365,-0.007477,-1.054062,0.009878,0.009336,0.005139,0.999938,0.005231,-0.009877,-0.005138,0.999943,0.009336,0.009926,-0.009285,0.999908,0.009877,-0.009336,-0.999908,0.001918,-0.001544,-0.064195,0.000069,-0.000766,0.000051,346.512604,350.975403,-1.000000,0.000000,0.000000
482149605.813357,0.123840,-0.008179,-1.076019,0.009878,0.009336,0.005139,0.999938,0.005231,-0.009877,-0.005138,0.999943,0.009336,0.009926,-0.009285,0.999908,0.009877,-0.009336,-0.999908,0.001918,-0.001544,-0.064195,0.000069,-0.000766,0.000051,346.512604,350.975403,-1.000000,0.000000,0.000000
482149605.824254,0.027649,-0.015045,-1.045364,0.009878,0.009336,0.005139,0.999938,0.005231,-0.009877,-0.005138,0.999943,0.009336,0.009926,-0.009285,0.999908,0.009877,-0.009336,-0.999908,0.001918,-0.001544,-0.064195,0.000069,-0.000766,0.000051,346.512604,350.975403,-1.000000,0.000000,0.000000
482149605.834157,0.025665,-0.013062,-1.053223,0.009878,0.009336,0.005139,0.999938,0.005231,-0.009877,-0.005138,0.999943,0.009336,0.009926,-0.009285,0.999908,0.009877,-0.009336,-0.999908,0.001918,-0.001544,-0.064195,0.000069,-0.000766,0.000051,346.512604,350.975403,-1.000000,0.000000,0.000000
482149605.844172,0.034317,0.001556,-1.067841,0.009878,0.009336,0.005139,0.999938,0.005231,-0.009877,-0.005138,0.999943,0.009336,0.009926,-0.009285,0.999908,0.009877,-0.009336,-0.999908,0.001918,-0.001544,-0.064195,0.000069,-0.000766,0.000051,346.512604,350.975403,-1.000000,0.000000,0.000000
482149605.854469,0.012909,-0.015854,-1.060165,0.009878,0.009336,0.005139,0.999938,0.005231,-0.009877,-0.005138,0.999943,0.009336,0.009926,-0.009285,0.999908,0.009877,-0.009336,-0.999908,0.001918,-0.001544,-0.064195,0.000069,-0.000766,0.000051,346.512604,350.975403,-1.000000,0.000000,0.000000
482149605.863655,0.012909,-0.015854,-1.060165,0.009878,0.009336,0.005139,0.999938,0.005231,-0.009877,-0.005138,0.999943,0.009336,0.009926,-0.009285,0.999908,0.009877,-0.009336,-0.999908,0.001918,-0.001544,-0.064195,0.000069,-0.000766,0.000051,346.512604,350.975403,-1.000000,0.000000,0.000000
482149605.873976,-0.091385,-0.006866,-1.060913,0.009878,0.009336,0.005139,0.999938,0.005231,-0.009877,-0.005138,0.999943,0.009336,0.009926,-0.009285,0.999908,0.009877,-0.009336,-0.999908,0.001918,-0.001544,-0.064195,0.000069,-0.000766,0.000051,346.512604,350.975403,-1.000000,0.000000,0.000000
482149605.884157,0.008011,-0.011963,-1.085678,0.009878,0.009336,0.005139,0.999938,0.005231,-0.009877,-0.005138,0.999943,0.009336,0.009926,-0.009285,0.999908,0.009877,-0.009336,-0.999908,0.001918,-0.001544,-0.064195,0.000069,-0.000766,0.000051,346.512604,350.975403,-1.000000,0.000000,0.000000
482149605.894458,-0.015015,-0.012253,-1.048599,0.009878,0.009336,0.005139,0.999938,0.005231,-0.009877,-0.005138,0.999943,0.009336,0.009926,-0.009285,0.999908,0.009877,-0.009336,-0.999908,0.001918,-0.001544,-0.064195,0.000069,-0.000766,0.000051,346.512604,350.975403,-1.000000,0.000000,0.000000
482149605.904115,-0.082275,-0.012100,-1.071640,0.009878,0.009336,0.005139,0.999938,0.005231,-0.009877,-0.005138,0.999943,0.009336,0.009926,-0.009285,0.999908,0.009877,-0.009336,-0.999908,0.001918,-0.001544,-0.064195,0.000069,-0.000766,0.000051,346.512604,350.975403,-1.000000,0.000000,0.000000
482149605.914202,0.014862,-0.014877,-1.060150,0.009878,0.009336,0.005139,0.999938,0.005231,-0.009877,-0.005138,0.999943,0.009336,0.009926,-0.009285,0.999908,0.009877,-0.009336,-0.999908,0.001918,-0.001544,-0.064195,0.000069,-0.000766,0.000051,346.512604,350.975403,-1.000000,0.000000,0.000000
482149605.924318,0.095810,0.000366,-1.066422,0.009878,0.009336,0.005139,0.999938,0.005231,-0.009877,-0.005138,0.999943,0.009336,0.009926,-0.009285,0.999908,0.009877,-0.009336,-0.999908,0.001918,-0.001544,-0.064195,0.000069,-0.000766,0.000051,346.512604,350.975403,-1.000000,0.000000,0.000000
482149605.934329,0.027405,-0.002213,-1.054169,0.009878,0.009336,0.005139,0.999938,0.005231,-0.009877,-0.005138,0.999943,0.009336,0.009926,-0.009285,0.999908,0.009877,-0.009336,-0.999908,0.001918,-0.001544,-0.064195,0.000069,-0.000766,0.000051,346.512604,350.975403,-1.000000,0.000000,0.000000
482149605.943358,0.091125,-0.007568,-1.077225,0.009878,0.009336,0.005139,0.999938,0.005231,-0.009877,-0.005138,0.999943,0.009336,0.009926,-0.009285,0.999908,0.009877,-0.009336,-0.999908,0.001918,-0.001544,-0.064195,0.000069,-0.000766,0.000051,346.512604,350.975403,-1.000000,0.000000,0.000000
482149605.954337,0.044449,-0.009491,-1.058960,0.009878,0.009336,0.005139,0.999938,0.005231,-0.009877,-0.005138,0.999943,0.009336,0.009926,-0.009285,0.999908,0.009877,-0.009336,-0.999908,0.001918,-0.001544,-0.064195,0.000069,-0.000766,0.000051,346.512604,350.975403,-1.000000,0.000000,0.000000
482149605.964273,0.021530,-0.006042,-1.053238,0.009878,0.009336,0.005139,0.999938,0.005231,-0.009877,-0.005138,0.999943,0.009336,0.009926,-0.009285,0.999908,0.009877,-0.009336,-0.999908,0.001918,-0.001544,-0.064195,0.000069,-0.000766,0.000051,346.512604,350.975403,-1.000000,0.000000,0.000000
482149605.974009,0.021530,-0.006042,-1.053238,0.009878,0.009336,0.005139,0.999938,0.005231,-0.009877,-0.005138,0.999943,0.009336,0.009926,-0.009285,0.999908,0.009877,-0.009336,-0.999908,0.001918,-0.001544,-0.064195,0.000069,-0.000766,0.000051,346.512604,350.975403,-1.000000,0.000000,0.000000
482149605.984016,-0.100021,-0.014771,-1.077652,0.009878,0.009336,0.005139,0.999938,0.005231,-0.009877,-0.005138,0.999943,0.009336,0.009926,-0.009285,0.999908,0.009877,-0.009336,-0.999908,0.001918,-0.001544,-0.064195,0.000069,-0.000766,0.000051,346.512604,350.975403,-1.000000,0.000000,0.000000
482149605.994175,-0.041962,0.003922,-1.080154,0.009878,0.009336,0.005139,0.999938,0.005231,-0.009877,-0.005138,0.999943,0.009336,0.009926,-0.009285,0.999908,0.009877,-0.009336,-0.999908,0.001918,-0.001544,-0.064195,0.000069,-0.000766,0.000051,346.512604,350.975403,-1.000000,0.000000,0.000000
482149606.004254,0.003891,-0.019485,-1.034744,0.009878,0.009336,0.005139,0.999938,0.005231,-0.009877,-0.005138,0.999943,0.009336,0.009926,-0.009285,0.999908,0.009877,-0.009336,-0.999908,0.001918,-0.001544,-0.064195,0.000069,-0.000766,0.000051,346.512604,350.975403,-1.000000,0.000000,0.000000
482149606.014179,0.022827,-0.025757,-1.029709,0.009878,0.009336,0.005139,0.999938,0.005231,-0.009877,-0.005138,0.999943,0.009336,0.009926,-0.009285,0.999908,0.009877,-0.009336,-0.999908,0.001918,-0.001544,-0.064195,0.000069,-0.000766,0.000051,346.512604,350.975403,-1.000000,0.000000,0.000000
482149606.024206,0.077286,-0.009262,-1.077347,0.009878,0.009336,0.005139,0.999938,0.005231,-0.009877,-0.005138,0.999943,0.009336,0.009926,-0.009285,0.999908,0.009877,-0.009336,-0.999908,0.001918,-0.001544,-0.064195,0.000069,-0.000766,0.000051,346.512604,350.975403,-1.000000,0.000000,0.000000
482149606.034122,0.131592,-0.010071,-1.042664,0.009878,0.009336,0.005139,0.999938,0.005231,-0.009877,-0.005138,0.999943,0.009336,0.009926,-0.009285,0.999908,0.009877,-0.009336,-0.999908,0.001918,-0.001544,-0.064195,0.000069,-0.000766,0.000051,346.512604,350.975403,-1.000000,0.000000,0.000000
482149606.044217,0.093430,-0.020523,-1.079193,0.009878,0.009336,0.005139,0.999938,0.005231,-0.009877,-0.005138,0.999943,0.009336,0.009926,-0.009285,0.999908,0.009877,-0.009336,-0.999908,0.001918,-0.001544,-0.064195,0.000069,-0.000766,0.000051,346.512604,350.975403,-1.000000,0.000000,0.000000
482149606.054134,0.082184,-0.006409,-1.081223,0.009878,0.009336,0.005139,0.999938,0.005231,-0.009877,-0.005138,0.999943,0.009336,0.009926,-0.009285,0.999908,0.009877,-0.009336,-0.999908,0.001918,-0.001544,-0.064195,0.000069,-0.000766,0.000051,346.512604,350.975403,-1.000000,0.000000,0.000000
482149606.064232,0.107910,-0.017502,-1.032043,0.009878,0.009336,0.005139,0.999938,0.005231,-0.009877,-0.005138,0.999943,0.009336,0.009926,-0.009285,0.999908,0.009877,-0.009336,-0.999908,0.001918,-0.001544,-0.064195,0.000069,-0.000766,0.000051,346.512604,350.975403,-1.000000,0.000000,0.000000
482149606.076365,-0.012985,0.000259,-1.099533,0.019393,0.009498,-0.000161,0.999812,0.000023,-0.019391,0.000161,0.999955,0.009498,0.019391,-0.009500,0.999767,0.019391,-0.009498,-0.999767,0.074038,-0.011025,-0.079426,0.006066,-0.005393,-0.002652,346.512604,350.975403,-1.000000,0.000000,0.000000
482149606.083492,-0.012985,0.000259,-1.099533,0.019393,0.009498,-0.000161,0.999812,0.000023,-0.019391,0.000161,0.999955,0.009498,0.019391,-0.009500,0.999767,0.019391,-0.009498,-0.999767,0.074038,-0.011025,-0.079426,0.006066,-0.005393,-0.002652,346.512604,350.975403,-1.000000,0.000000,0.000000
482149606.094221,-0.071365,-0.009384,-1.082352,0.019381,0.009575,-0.000159,0.999812,0.000027,-0.019378,0.000159,0.999954,0.009575,0.019378,-0.009577,0.999766,0.019378,-0.009575,-0.999766,0.062805,0.003167,-0.081456,0.004830,0.001537,-0.001415,346.512604,350.975403,-1.000000,0.000000,0.000000
482149606.104257,-0.020859,-0.010284,-1.070206,0.019411,0.009674,-0.000224,0.999812,-0.000036,-0.019409,0.000224,0.999953,0.009674,0.019407,-0.009677,0.999765,0.019409,-0.009674,-0.999765,-0.032394,0.009934,-0.099768,0.006088,0.001484,-0.008796,346.512604,350.975403,-1.000000,0.000000,0.000000
482149606.114166,-0.078552,-0.005157,-1.060806,0.019411,0.009674,-0.000224,0.999812,-0.000036,-0.019409,0.000224,0.999953,0.009674,0.019407,-0.009677,0.999765,0.019409,-0.009674,-0.999765,-0.032394,0.009934,-0.099768,0.006088,0.001484,-0.008796,346.512604,350.975403,-1.000000,0.000000,0.000000
482149606.124120,-0.051453,-0.007919,-1.099838,0.019431,0.009680,-0.000202,0.999811,-0.000014,-0.019429,0.000202,0.999953,0.009679,0.019428,-0.009682,0.999764,0.019429,-0.009679,-0.999764,-0.090794,0.000295,-0.082587,0.001102,0.002739,0.007187,346.512604,350.975403,-1.000000,0.000000,0.000000
482149606.134213,0.098877,-0.014313,-1.028183,0.019467,0.009731,-0.000249,0.999811,-0.000059,-0.019465,0.000249,0.999953,0.009731,0.019463,-0.009734,0.999763,0.019465,-0.009731,-0.999763,-0.040323,-0.000554,-0.070442,-0.000111,0.002678,0.001026,346.512604,350.975403,-1.000000,0.000000,0.000000
482149606.143879,0.143616,-0.001724,-1.090561,0.019467,0.009731,-0.000249,0.999811,-0.000059,-0.019465,0.000249,0.999953,0.009731,0.019463,-0.009734,0.999763,0.019465,-0.009731,-0.999763,-0.040323,-0.000554,-0.070442,-0.000111,0.002678,0.001026,346.512604,350.975403,-1.000000,0.000000,0.000000
482149606.154161,0.091187,-0.020233,-1.042953,0.019487,0.009742,-0.000233,0.999810,-0.000043,-0.019485,0.000233,0.999952,0.009742,0.019484,-0.009744,0.999763,0.019485,-0.009742,-0.999763,-0.098037,0.004584,-0.061044,0.002352,0.003861,0.002270,346.512604,350.975403,-1.000000,0.000000,0.000000
482149606.164028,0.050354,-0.003769,-1.073593,0.019517,0.009818,-0.000196,0.999810,-0.000005,-0.019515,0.000196,0.999952,0.009818,0.019514,-0.009820,0.999761,0.019515,-0.009818,-0.999761,0.079362,-0.004494,-0.028422,0.002360,0.003840,-0.000192,346.512604,350.975403,-1.000000,0.000000,0.000000
482149606.173779,0.050354,-0.003769,-1.073593,0.019517,0.009818,-0.000196,0.999810,-0.000005,-0.019515,0.000196,0.999952,0.009818,0.019514,-0.009820,0.999761,0.019515,-0.009818,-0.999761,0.079362,-0.004494,-0.028422,0.002360,0.003840,-0.000192,346.512604,350.975403,-1.000000,0.000000,0.000000
482149606.184014,-0.044022,-0.001785,-1.050751,0.019526,0.009854,-0.000187,0.999809,0.000006,-0.019524,0.000187,0.999951,0.009853,0.019523,-0.009855,0.999761,0.019524,-0.009853,-0.999761,0.124091,0.008129,-0.090800,0.001118,0.001543,0.002261,346.512604,350.975403,-1.000000,0.000000,0.000000
482149606.194019,-0.090164,-0.009094,-1.090317,0.019506,0.009947,-0.000204,0.999810,-0.000010,-0.019504,0.000204,0.999951,0.009947,0.019503,-0.009949,0.999760,0.019504,-0.009947,-0.999760,0.030850,0.006178,-0.073833,0.006052,0.001578,0.002283,346.512604,350.975403,-1.000000,0.000000,0.000000
482149606.206121,-0.174622,-0.012177,-1.050751,0.019506,0.009947,-0.000204,0.999810,-0.000010,-0.019504,0.000204,0.999951,0.009947,0.019503,-0.009949,0.999760,0.019504,-0.009947,-0.999760,0.030850,0.006178,-0.073833,0.006052,0.001578,0.002283,346.512604,350.975403,-1.000000,0.000000,0.000000
482149606.213839,-0.091339,-0.006927,-1.068756,0.019492,0.009904,-0.000188,0.999810,0.000005,-0.019490,0.000188,0.999951,0.009904,0.019489,-0.009906,0.999761,0.019490,-0.009904,-0.999761,-0.063512,0.008119,-0.050990,-0.006276,-0.005460,-0.000246,346.512604,350.975403,-1.000000,0.000000,0.000000
482149606.224178,-0.109116,-0.015427,-1.052231,0.019511,0.009955,-0.000258,0.999810,-0.000064,-0.019509,0.000258,0.999950,0.009955,0.019507,-0.009958,0.999760,0.019509,-0.009955,-0.999760,-0.109673,0.000861,-0.090557,-0.002562,-0.000845,-0.003915,346.512604,350.975403,-1.000000,0.000000,0.000000
482149606.234151,-0.120193,0.001434,-1.084641,0.019481,0.009978,-0.000273,0.999810,-0.000078,-0.019479,0.000273,0.999950,0.009978,0.019477,-0.009981,0.999761,0.019479,-0.009978,-0.999761,-0.194101,-0.002199,-0.050990,0.003577,0.000426,0.004732,346.512604,350.975403,-1.000000,0.000000,0.000000
482149606.244224,0.091980,-0.013260,-1.040009,0.019481,0.009978,-0.000273,0.999810,-0.000078,-0.019479,0.000273,0.999950,0.009978,0.019477,-0.009981,0.999761,0.019479,-0.009978,-0.999761,-0.194101,-0.002199,-0.050990,0.003577,0.000426,0.004732,346.512604,350.975403,-1.000000,0.000000,0.000000
482149606.254129,0.134598,-0.000473,-1.080841,0.019450,0.010065,-0.000290,0.999811,-0.000094,-0.019447,0.000290,0.999949,0.010065,0.019445,-0.010069,0.999760,0.019447,-0.010065,-0.999760,-0.128563,-0.005361,-0.052471,-0.002563,-0.003155,-0.003919,346.512604,350.975403,-1.000000,0.000000,0.000000
482149606.264464,0.075150,-0.006180,-1.066574,0.019448,0.010118,-0.000317,0.999811,-0.000120,-0.019446,0.000317,0.999949,0.010118,0.019443,-0.010122,0.999760,0.019446,-0.010118,-0.999760,-0.139639,0.011552,-0.084881,0.006071,-0.001939,-0.003878,346.512604,350.975403,-1.000000,0.000000,0.000000
482149606.273745,0.075150,-0.006180,-1.066574,0.019448,0.010118,-0.000317,0.999811,-0.000120,-0.019446,0.000317,0.999949,0.010118,0.019443,-0.010122,0.999760,0.019446,-0.010118,-0.999760,-0.139639,0.011552,-0.084881,0.006071,-0.001939,-0.003878,346.512604,350.975403,-1.000000,0.000000,0.000000
482149606.285267,0.110779,-0.003891,-1.065323,0.019545,0.010098,-0.000297,0.999809,-0.000099,-0.019542,0.000297,0.999949,0.010098,0.019540,-0.010102,0.999758,0.019542,-0.010098,-0.999758,0.115056,0.009625,-0.081083,-0.001336,0.004958,-0.001439,346.512604,350.975403,-1.000000,0.000000,0.000000
482149606.293649,0.050217,-0.001694,-1.061844,0.019520,0.010043,-0.000274,0.999810,-0.000078,-0.019517,0.000274,0.999950,0.010043,0.019516,-0.010047,0.999759,0.019517,-0.010043,-0.999759,0.055632,0.003863,-0.066815,-0.006288,-0.006583,0.003445,346.512604,350.975403,-1.000000,0.000000,0.000000
482149606.304306,-0.062668,0.002243,-1.092056,0.019520,0.010043,-0.000274,0.999810,-0.000078,-0.019517,0.000274,0.999950,0.010043,0.019516,-0.010047,0.999759,0.019517,-0.010043,-0.999759,0.055632,0.003863,-0.066815,-0.006288,-0.006583,0.003445,346.512604,350.975403,-1.000000,0.000000,0.000000
482149606.324688,-0.149124,0.001190,-1.056427,0.019497,0.010149,-0.000234,0.999810,-0.000036,-0.019495,0.000234,0.999949,0.010149,0.019493,-0.010151,0.999758,0.019495,-0.010149,-0.999758,0.030722,0.008455,-0.062085,0.007293,0.002720,-0.000172,346.512604,350.975403,-1.000000,0.000000,0.000000
482149606.334480,-0.075424,-0.011185,-1.064728,0.019497,0.010149,-0.000234,0.999810,-0.000036,-0.019495,0.000234,0.999949,0.010149,0.019493,-0.010151,0.999758,0.019495,-0.010149,-0.999758,0.030722,0.008455,-0.062085,0.007293,0.002720,-0.000172,346.512604,350.975403,-1.000000,0.000000,0.000000
482149606.343971,-0.105072,-0.011688,-1.074738,0.019521,0.010141,-0.000244,0.999810,-0.000046,-0.019519,0.000244,0.999949,0.010140,0.019517,-0.010143,0.999758,0.019519,-0.010140,-0.999758,-0.175402,0.002587,-0.052808,0.002372,0.003809,-0.003886,346.512604,350.975403,-1.000000,0.000000,0.000000
482149606.354221,0.188217,-0.005463,-1.074554,0.019559,0.010241,-0.000253,0.999809,-0.000053,-0.019557,0.000253,0.999948,0.010241,0.019555,-0.010244,0.999756,0.019557,-0.010241,-0.999756,-0.168681,0.011431,-0.056671,0.012229,0.000435,-0.001384,346.512604,350.975403,-1.000000,0.000000,0.000000
482149606.365650,0.207901,-0.003738,-1.059723,0.019582,0.010247,-0.000155,0.999808,0.000045,-0.019580,0.000155,0.999947,0.010247,0.019580,-0.010248,0.999756,0.019580,-0.010247,-0.999756,-0.124652,-0.001442,-0.074982,-0.003828,0.000384,0.005929,346.512604,350.975403,-1.000000,0.000000,0.000000
482149606.373505,0.207901,-0.003738,-1.059723,0.019582,0.010247,-0.000155,0.999808,0.000045,-0.019580,0.000155,0.999947,0.010247,0.019580,-0.010248,0.999756,0.019580,-0.010247,-0.999756,-0.124652,-0.001442,-0.074982,-0.003828,0.000384,0.005929,346.512604,350.975403,-1.000000,0.000000,0.000000
482149606.384196,0.135895,-0.015335,-1.072998,0.019608,0.010252,-0.000146,0.999808,0.000055,-0.019606,0.000146,0.999947,0.010252,0.019606,-0.010253,0.999755,0.019606,-0.010252,-0.999755,-0.124678,-0.001436,-0.074982,-0.000119,0.002699,0.003487,346.512604,350.975403,-1.000000,0.000000,0.000000
482149606.394704,0.153275,-0.001663,-1.053268,0.019608,0.010252,-0.000146,0.999808,0.000055,-0.019606,0.000146,0.999947,0.010252,0.019606,-0.010253,0.999755,0.019606,-0.010252,-0.999755,-0.124678,-0.001436,-0.074982,-0.000119,0.002699,0.003487,346.512604,350.975403,-1.000000,0.000000,0.000000
482149606.403914,0.111053,-0.020660,-1.048691,0.019594,0.010370,-0.000122,0.999808,0.000082,-0.019592,0.000122,0.999946,0.010370,0.019591,-0.010370,0.999754,0.019592,-0.010370,-0.999754,0.188309,0.006632,-0.059969,0.009738,-0.001829,0.005987,346.512604,350.975403,-1.000000,0.000000,0.000000
482149606.414613,-0.060669,-0.002625,-1.075394,0.019608,0.010346,-0.000087,0.999808,0.000116,-0.019606,0.000087,0.999946,0.010346,0.019606,-0.010345,0.999754,0.019606,-0.010346,-0.999754,0.116289,-0.004989,-0.073244,-0.003800,0.000310,-0.002688,346.512604,350.975403,-1.000000,0.000000,0.000000
482149606.424143,-0.190292,-0.019836,-1.054779,0.019615,0.010338,-0.000097,0.999808,0.000106,-0.019613,0.000097,0.999947,0.010337,0.019613,-0.010337,0.999754,0.019613,-0.010337,-0.999754,0.091440,-0.010323,-0.048937,-0.005045,-0.001976,0.000995,346.512604,350.975403,-1.000000,0.000000,0.000000
482149606.434306,-0.050766,-0.017365,-1.024368,0.019615,0.010338,-0.000097,0.999808,0.000106,-0.019613,0.000097,0.999947,0.010337,0.019613,-0.010337,0.999754,0.019613,-0.010337,-0.999754,0.091440,-0.010323,-0.048937,-0.005045,-0.001976,0.000995,346.512604,350.975403,-1.000000,0.000000,0.000000
482149606.444137,-0.090256,-0.008987,-1.075623,0.019653,0.010361,-0.000058,0.999807,0.000146,-0.019650,0.000058,0.999946,0.010361,0.019651,-0.010360,0.999753,0.019650,-0.010361,-0.999753,-0.080319,0.007736,-0.075640,0.004827,0.006166,-0.000178,346.512604,350.975403,-1.000000,0.000000,0.000000
482149606.454592,0.019745,-0.015915,-1.047379,0.019587,0.010462,0.000009,0.999808,0.000213,-0.019585,-0.000009,0.999945,0.010462,0.019586,-0.010460,0.999753,0.019585,-0.010462,-0.999753,-0.209877,-0.009375,-0.055026,0.002355,-0.001924,0.001029,346.512604,350.975403,-1.000000,0.000000,0.000000
482149606.465453,0.019745,-0.015915,-1.047379,0.019587,0.010462,0.000009,0.999808,0.000213,-0.019585,-0.000009,0.999945,0.010462,0.019586,-0.010460,0.999753,0.019585,-0.010462,-0.999753,-0.209877,-0.009375,-0.055026,0.002355,-0.001924,0.001029,346.512604,350.975403,-1.000000,0.000000,0.000000
482149606.473727,0.142792,-0.018341,-1.055328,0.019591,0.010514,-0.000036,0.999808,0.000170,-0.019589,0.000036,0.999945,0.010514,0.019590,-0.010513,0.999753,0.019589,-0.010514,-0.999753,-0.070355,-0.006850,-0.024615,0.006079,0.001504,-0.006335,346.512604,350.975403,-1.000000,0.000000,0.000000
482149606.484185,0.188385,-0.009506,-1.085342,0.019632,0.010567,-0.000011,0.999807,0.000196,-0.019630,0.000011,0.999944,0.010566,0.019631,-0.010565,0.999752,0.019630,-0.010566,-0.999752,0.000115,-0.005349,-0.047627,0.003586,0.006179,0.002278,346.512604,350.975403,-1.000000,0.000000,0.000000
482149606.494059,0.189468,-0.021240,-1.057922,0.019632,0.010567,-0.000011,0.999807,0.000196,-0.019630,0.000011,0.999944,0.010566,0.019631,-0.010565,0.999752,0.019630,-0.010566,-0.999752,0.000115,-0.005349,-0.047627,0.003586,0.006179,0.002278,346.512604,350.975403,-1.000000,0.000000,0.000000
482149606.503912,0.121613,-0.001129,-1.064270,0.019675,0.010565,-0.000025,0.999806,0.000183,-0.019673,0.000025,0.999944,0.010565,0.019673,-0.010564,0.999751,0.019673,-0.010565,-0.999751,0.123119,-0.007776,-0.055578,-0.000095,0.003791,-0.003897,346.512604,350.975403,-1.000000,0.000000,0.000000
482149606.514210,0.116898,-0.016754,-1.045700,0.019728,0.010671,-0.000007,0.999805,0.000204,-0.019725,0.000007,0.999943,0.010671,0.019726,-0.010669,0.999748,0.019725,-0.010671,-0.999748,0.169743,-0.010569,-0.058174,-0.000121,0.011947,0.004733,346.512604,350.975403,-1.000000,0.000000,0.000000
482149606.524305,-0.184265,-0.022949,-1.053741,0.019728,0.010671,-0.000007,0.999805,0.000204,-0.019725,0.000007,0.999943,0.010671,0.019726,-0.010669,0.999748,0.019725,-0.010671,-0.999748,0.169743,-0.010569,-0.058174,-0.000121,0.011947,0.004733,346.512604,350.975403,-1.000000,0.000000,0.000000
482149606.534000,-0.222229,-0.012238,-1.051086,0.019771,0.010701,0.000051,0.999805,0.000262,-0.019768,-0.000051,0.999943,0.010701,0.019770,-0.010698,0.999747,0.019768,-0.010701,-0.999747,0.101844,0.009572,-0.064523,0.004818,0.001568,0.002277,346.512604,350.975403,-1.000000,0.000000,0.000000
482149606.544216,-0.109924,-0.011688,-1.088501,0.019767,0.010742,0.000106,0.999805,0.000318,-0.019764,-0.000106,0.999942,0.010742,0.019766,-0.010738,0.999747,0.019764,-0.010742,-0.999747,0.097133,-0.006012,-0.045953,-0.000113,-0.004251,0.001014,346.512604,350.975403,-1.000000,0.000000,0.000000
482149606.556250,-0.084412,-0.008987,-1.060867,0.019767,0.010742,0.000106,0.999805,0.000318,-0.019764,-0.000106,0.999942,0.010742,0.019766,-0.010738,0.999747,0.019764,-0.010742,-0.999747,0.097133,-0.006012,-0.045953,-0.000113,-0.004251,0.001014,346.512604,350.975403,-1.000000,0.000000,0.000000
482149606.563904,-0.061554,-0.006577,-1.076370,0.019759,0.010765,0.000074,0.999805,0.000286,-0.019757,-0.000074,0.999942,0.010764,0.019759,-0.010761,0.999747,0.019757,-0.010764,-0.999747,-0.204022,-0.012185,-0.053995,0.002367,-0.000800,-0.002663,346.512604,350.975403,-1.000000,0.000000,0.000000
482149606.573626,-0.061554,-0.006577,-1.076370,0.019800,0.010793,0.000099,0.999804,0.000313,-0.019797,-0.000099,0.999942,0.010793,0.019800,-0.010789,0.999746,0.019797,-0.010793,-0.999746,-0.129722,-0.000896,-0.088755,0.004824,-0.004226,-0.000195,346.512604,350.975403,-1.000000,0.000000,0.000000
482149606.584591,0.111923,-0.019562,-1.032013,0.019800,0.010793,0.000099,0.999804,0.000313,-0.019797,-0.000099,0.999942,0.010793,0.019800,-0.010789,0.999746,0.019797,-0.010793,-0.999746,-0.129722,-0.000896,-0.088755,0.004824,-0.004226,-0.000195,346.512604,350.975403,-1.000000,0.000000,0.000000
482149606.594043,0.148636,-0.008667,-1.075836,0.019780,0.010757,0.000175,0.999804,0.000388,-0.019778,-0.000175,0.999942,0.010757,0.019781,-0.010751,0.999747,0.019778,-0.010757,-0.999747,-0.104190,0.001769,-0.061121,-0.003836,-0.000750,0.008389,346.512604,350.975403,-1.000000,0.000000,0.000000
482149606.603752,0.076202,-0.005295,-1.077332,0.019788,0.010877,0.000283,0.999804,0.000498,-0.019786,-0.000283,0.999941,0.010877,0.019790,-0.010869,0.999745,0.019786,-0.010877,-0.999745,0.092138,-0.008685,-0.032268,0.004814,0.001579,0.003507,346.512604,350.975403,-1.000000,0.000000,0.000000
482149606.614209,0.142426,-0.003448,-1.055313,0.019809,0.010918,0.000287,0.999804,0.000503,-0.019806,-0.000287,0.999940,0.010918,0.019811,-0.010910,0.999744,0.019806,-0.010918,-0.999744,0.092117,-0.008644,-0.032269,0.008518,0.002749,0.002295,346.512604,350.975403,-1.000000,0.000000,0.000000
482149606.624218,0.002869,-0.011658,-1.057297,0.019809,0.010918,0.000287,0.999804,0.000503,-0.019806,-0.000287,0.999940,0.010918,0.019811,-0.010910,0.999744,0.019806,-0.010918,-0.999744,0.092117,-0.008644,-0.032269,0.008518,0.002749,0.002295,346.512604,350.975403,-1.000000,0.000000,0.000000
482149606.634139,-0.110199,-0.004654,-1.075745,0.019788,0.010943,0.000156,0.999804,0.000373,-0.019786,-0.000156,0.999940,0.010943,0.019789,-0.010938,0.999744,0.019786,-0.010943,-0.999744,0.056417,0.005648,-0.077587,0.004841,-0.000804,-0.005114,346.512604,350.975403,-1.000000,0.000000,0.000000
482149606.644238,-0.222290,-0.014130,-1.036377,0.019786,0.010971,0.000094,0.999804,0.000311,-0.019784,-0.000094,0.999940,0.010971,0.019786,-0.010967,0.999744,0.019784,-0.010971,-0.999744,0.122642,0.007523,-0.055569,0.003615,-0.004298,-0.007587,346.512604,350.975403,-1.000000,0.000000,0.000000
482149606.654421,-0.174896,0.001678,-1.057602,0.019786,0.010971,0.000094,0.999804,0.000311,-0.019784,-0.000094,0.999940,0.010971,0.019786,-0.010967,0.999744,0.019784,-0.010971,-0.999744,0.122642,0.007523,-0.055569,0.003615,-0.004298,-0.007587,346.512604,350.975403,-1.000000,0.000000,0.000000
482149606.663564,-0.174896,0.001678,-1.057602,0.019744,0.011083,0.000058,0.999805,0.000277,-0.019741,-0.000058,0.999939,0.011082,0.019743,-0.011079,0.999744,0.019741,-0.011082,-0.999744,-0.129940,0.006428,-0.076001,0.004813,-0.001886,0.003502,346.512604,350.975403,-1.000000,0.000000,0.000000
482149606.675400,-0.071609,0.005356,-1.099960,0.019718,0.010992,0.000105,0.999806,0.000322,-0.019716,-0.000105,0.999940,0.010992,0.019718,-0.010988,0.999745,0.019716,-0.010992,-0.999745,-0.242006,-0.003138,-0.036632,-0.011224,0.000321,0.004664,346.512604,350.975403,-1.000000,0.000000,0.000000
482149606.684200,0.132629,-0.012085,-1.042648,0.019718,0.010992,0.000105,0.999806,0.000322,-0.019716,-0.000105,0.999940,0.010992,0.019718,-0.010988,0.999745,0.019716,-0.010992,-0.999745,-0.242006,-0.003138,-0.036632,-0.011224,0.000321,0.004664,346.512604,350.975403,-1.000000,0.000000,0.000000
482149606.693877,0.172226,0.005646,-1.095276,0.019799,0.011057,0.000172,0.999804,0.000391,-0.019796,-0.000172,0.999939,0.011057,0.019799,-0.011052,0.999743,0.019796,-0.011057,-0.999743,-0.194692,0.012736,-0.057859,-0.001365,0.002721,0.007174,346.512604,350.975403,-1.000000,0.000000,0.000000
482149606.704221,0.166275,-0.008804,-1.046295,0.019802,0.011075,0.000212,0.999804,0.000431,-0.019800,-0.000212,0.999939,0.011075,0.019803,-0.011068,0.999743,0.019800,-0.011075,-0.999743,-0.091409,0.016431,-0.100218,0.004802,0.002765,0.007202,346.512604,350.975403,-1.000000,0.000000,0.000000
482149606.715520,0.144638,-0.012421,-1.058243,0.019802,0.011075,0.000212,0.999804,0.000431,-0.019800,-0.000212,0.999939,0.011075,0.019803,-0.011068,0.999743,0.019800,-0.011075,-0.999743,-0.091409,0.016431,-0.100218,0.004802,0.002765,0.007202,346.512604,350.975403,-1.000000,0.000000,0.000000
482149606.724066,0.190094,-0.006363,-1.056915,0.019826,0.011146,0.000255,0.999803,0.000476,-0.019824,-0.000255,0.999938,0.011145,0.019828,-0.011138,0.999741,0.019824,-0.011145,-0.999741,0.152402,0.016791,-0.095535,0.001134,0.003810,-0.002661,346.512604,350.975403,-1.000000,0.000000,0.000000
482149606.734014,0.086243,-0.011414,-1.074341,0.019808,0.011181,0.000276,0.999804,0.000497,-0.019805,-0.000276,0.999937,0.011181,0.019810,-0.011173,0.999741,0.019805,-0.011181,-0.999741,0.146470,0.002376,-0.046554,0.001113,-0.003066,0.003483,346.512604,350.975403,-1.000000,0.000000,0.000000
482149606.745111,-0.101547,0.005142,-1.070770,0.019808,0.011181,0.000276,0.999804,0.000497,-0.019805,-0.000276,0.999937,0.011181,0.019810,-0.011173,0.999741,0.019805,-0.011181,-0.999741,0.146470,0.002376,-0.046554,0.001113,-0.003066,0.003483,346.512604,350.975403,-1.000000,0.000000,0.000000
482149606.753993,-0.205505,0.006973,-1.097000,0.019776,0.011238,0.000223,0.999804,0.000445,-0.019773,-0.000223,0.999937,0.011238,0.019777,-0.011231,0.999741,0.019773,-0.011238,-0.999741,0.170321,0.004875,-0.057174,0.002370,-0.001966,-0.003896,346.512604,350.975403,-1.000000,0.000000,0.000000
482149606.763471,-0.205505,0.006973,-1.097000,0.019779,0.011172,0.000276,0.999804,0.000497,-0.019776,-0.000276,0.999938,0.011171,0.019781,-0.011164,0.999742,0.019776,-0.011171,-0.999742,0.170318,0.004808,-0.057173,-0.007528,-0.001952,0.005907,346.512604,350.975403,-1.000000,0.000000,0.000000
482149606.775313,-0.083313,-0.016907,-1.050095,0.019853,0.011127,0.000243,0.999803,0.000464,-0.019850,-0.000243,0.999938,0.011127,0.019854,-0.011120,0.999741,0.019850,-0.011127,-0.999741,-0.121398,0.016269,-0.071029,-0.001340,0.006122,-0.000207,346.512604,350.975403,-1.000000,0.000000,0.000000
482149606.784131,-0.088333,-0.008972,-1.068741,0.019853,0.011127,0.000243,0.999803,0.000464,-0.019850,-0.000243,0.999938,0.011127,0.019854,-0.011120,0.999741,0.019850,-0.011127,-0.999741,-0.121398,0.016269,-0.071029,-0.001340,0.006122,-0.000207,346.512604,350.975403,-1.000000,0.000000,0.000000
482149606.793866,0.061447,-0.014801,-1.061783,0.019913,0.011114,0.000235,0.999802,0.000456,-0.019910,-0.000235,0.999938,0.011114,0.019914,-0.011107,0.999740,0.019910,-0.011114,-0.999740,-0.225415,0.018087,-0.097260,0.001131,0.006129,-0.001427,346.512604,350.975403,-1.000000,0.000000,0.000000
482149606.804103,0.148697,-0.015488,-1.059189,0.019943,0.011214,0.000259,0.999801,0.000483,-0.019940,-0.000259,0.999937,0.011214,0.019944,-0.011206,0.999738,0.019940,-0.011214,-0.999738,-0.108273,0.002242,-0.069003,0.006056,0.003876,0.001054,346.512604,350.975403,-1.000000,0.000000,0.000000
482149606.814488,0.267487,-0.004944,-1.069107,0.019943,0.011214,0.000259,0.999801,0.000483,-0.019940,-0.000259,0.999937,0.011214,0.019944,-0.011206,0.999738,0.019940,-0.011214,-0.999738,-0.108273,0.002242,-0.069003,0.006056,0.003876,0.001054,346.512604,350.975403,-1.000000,0.000000,0.000000
482149606.824618,0.192383,-0.016388,-1.066711,0.019986,0.011290,0.000202,0.999800,0.000428,-0.019984,-0.000202,0.999936,0.011290,0.019987,-0.011284,0.999737,0.019984,-0.011290,-0.999737,0.041463,-0.003511,-0.062046,0.007313,0.004977,-0.006325,346.512604,350.975403,-1.000000,0.000000,0.000000
482149606.833975,0.121475,0.002884,-1.061340,0.019931,0.011174,0.000176,0.999801,0.000399,-0.019928,-0.000176,0.999938,0.011173,0.019931,-0.011168,0.999739,0.019928,-0.011173,-0.999739,0.247558,0.006229,-0.069368,-0.002575,-0.003124,-0.000227,346.512604,350.975403,-1.000000,0.000000,0.000000
482149606.844294,0.109756,-0.003860,-1.063370,0.019931,0.011174,0.000176,0.999801,0.000399,-0.019928,-0.000176,0.999938,0.011173,0.019931,-0.011168,0.999739,0.019928,-0.011173,-0.999739,0.247558,0.006229,-0.069368,-0.002575,-0.003124,-0.000227,346.512604,350.975403,-1.000000,0.000000,0.000000
482149606.854036,-0.218048,-0.022232,-1.046143,0.019895,0.011203,0.000209,0.999802,0.000432,-0.019892,-0.000209,0.999937,0.011203,0.019896,-0.011196,0.999739,0.019892,-0.011203,-0.999739,0.247594,0.006259,-0.069368,0.004805,-0.003019,0.005961,346.512604,350.975403,-1.000000,0.000000,0.000000
482149606.864248,-0.190216,-0.012131,-1.089081,0.019813,0.011339,0.000215,0.999804,0.000440,-0.019811,-0.000215,0.999936,0.011339,0.019814,-0.011332,0.999739,0.019811,-0.011339,-0.999739,0.101665,0.014223,-0.061601,0.003610,-0.007752,-0.006362,346.512604,350.975403,-1.000000,0.000000,0.000000
482149606.873836,-0.190216,-0.012131,-1.089081,0.019813,0.011339,0.000215,0.999804,0.000440,-0.019811,-0.000215,0.999936,0.011339,0.019814,-0.011332,0.999739,0.019811,-0.011339,-0.999739,0.101665,0.014223,-0.061601,0.003610,-0.007752,-0.006362,346.512604,350.975403,-1.000000,0.000000,0.000000
482149606.883849,-0.167618,-0.007507,-1.077133,0.019839,0.011320,0.000195,0.999803,0.000420,-0.019836,-0.000195,0.999936,0.011319,0.019840,-0.011313,0.999739,0.019836,-0.011319,-0.999739,0.089920,0.007459,-0.063631,0.003601,0.003827,-0.002650,346.512604,350.975403,-1.000000,0.000000,0.000000
482149606.893862,-0.135025,-0.010925,-1.048492,0.019869,0.011335,0.000191,0.999803,0.000416,-0.019866,-0.000191,0.999936,0.011335,0.019869,-0.011329,0.999738,0.019866,-0.011335,-0.999738,-0.210082,-0.000796,-0.089342,-0.005028,0.002600,-0.003923,346.512604,350.975403,-1.000000,0.000000,0.000000
482149606.905991,-0.056686,-0.008545,-1.059692,0.019861,0.011353,0.000225,0.999803,0.000450,-0.019858,-0.000225,0.999936,0.011353,0.019862,-0.011346,0.999738,0.019858,-0.011353,-0.999738,-0.187476,0.003845,-0.077395,0.001113,-0.000757,0.003486,346.512604,350.975403,-1.000000,0.000000,0.000000
482149606.913586,0.140762,-0.021164,-1.041611,0.019861,0.011353,0.000225,0.999803,0.000450,-0.019858,-0.000225,0.999936,0.011353,0.019862,-0.011346,0.999738,0.019858,-0.011353,-0.999738,-0.187476,0.003845,-0.077395,0.001113,-0.000757,0.003486,346.512604,350.975403,-1.000000,0.000000,0.000000
482149606.924445,0.251678,-0.001816,-1.089783,0.019896,0.011316,0.000275,0.999802,0.000500,-0.019893,-0.000275,0.999936,0.011315,0.019897,-0.011308,0.999738,0.019893,-0.011315,-0.999738,-0.154918,0.000390,-0.048754,0.003557,0.001633,0.010887,346.512604,350.975403,-1.000000,0.000000,0.000000
482149606.935970,0.234726,-0.002380,-1.074219,0.019910,0.011334,0.000363,0.999802,0.000588,-0.019908,-0.000362,0.999936,0.011334,0.019913,-0.011324,0.999738,0.019908,-0.011334,-0.999738,-0.076594,0.002789,-0.059955,-0.000132,0.000420,0.007175,346.512604,350.975403,-1.000000,0.000000,0.000000
482149606.943848,0.191132,-0.004486,-1.070633,0.019910,0.011334,0.000363,0.999802,0.000588,-0.019908,-0.000362,0.999936,0.011334,0.019913,-0.011324,0.999738,0.019908,-0.011334,-0.999738,-0.076594,0.002789,-0.059955,-0.000132,0.000420,0.007175,346.512604,350.975403,-1.000000,0.000000,0.000000
482149606.954154,0.001572,-0.005524,-1.032791,0.019878,0.011368,0.000394,0.999802,0.000620,-0.019875,-0.000394,0.999935,0.011368,0.019881,-0.011358,0.999738,0.019875,-0.011368,-0.999738,0.231803,0.009552,-0.090045,0.007288,0.001575,0.001056,346.512604,350.975403,-1.000000,0.000000,0.000000
482149606.965026,-0.229141,-0.009186,-1.061920,0.019876,0.011397,0.000397,0.999802,0.000624,-0.019874,-0.000397,0.999935,0.011397,0.019879,-0.011387,0.999738,0.019874,-0.011397,-0.999738,0.214852,0.009017,-0.074481,0.003577,0.002735,0.004734,346.512604,350.975403,-1.000000,0.000000,0.000000
482149606.975754,-0.331238,-0.011185,-1.059708,0.019876,0.011397,0.000397,0.999802,0.000624,-0.019874,-0.000397,0.999935,0.011397,0.019879,-0.011387,0.999738,0.019874,-0.011397,-0.999738,0.214852,0.009017,-0.074481,0.003577,0.002735,0.004734,346.512604,350.975403,-1.000000,0.000000,0.000000
482149606.984072,-0.331238,-0.011185,-1.059708,0.019900,0.011451,0.000500,0.999802,0.000728,-0.019897,-0.000500,0.999934,0.011451,0.019904,-0.011439,0.999736,0.019897,-0.011451,-0.999736,-0.018326,0.005927,-0.033055,-0.002590,0.002691,0.004706,346.512604,350.975403,-1.000000,0.000000,0.000000
482149606.993896,-0.223358,-0.001419,-1.067734,0.019915,0.011540,0.000509,0.999801,0.000738,-0.019913,-0.000509,0.999933,0.011540,0.019920,-0.011527,0.999735,0.019913,-0.011540,-0.999735,-0.249054,0.002354,-0.062185,0.008530,0.003872,-0.001397,346.512604,350.975403,-1.000000,0.000000,0.000000
482149607.009590,-0.050980,0.008057,-1.081192,0.019878,0.011561,0.000450,0.999802,0.000680,-0.019875,-0.000450,0.999933,0.011561,0.019882,-0.011550,0.999736,0.019875,-0.011561,-0.999736,-0.351113,0.000376,-0.059972,0.008525,-0.000736,-0.000174,346.512604,350.975403,-1.000000,0.000000,0.000000
482149607.014298,-0.050980,0.008057,-1.081192,0.019878,0.011561,0.000450,0.999802,0.000680,-0.019875,-0.000450,0.999933,0.011561,0.019882,-0.011550,0.999736,0.019875,-0.011561,-0.999736,-0.351113,0.000376,-0.059972,0.008525,-0.000736,-0.000174,346.512604,350.975403,-1.000000,0.000000,0.000000
482149607.024045,0.150269,-0.000595,-1.053284,0.019864,0.011554,0.000430,0.999803,0.000660,-0.019862,-0.000430,0.999933,0.011553,0.019868,-0.011543,0.999736,0.019862,-0.011553,-0.999736,-0.243220,0.010134,-0.067998,-0.005034,-0.002008,-0.002699,346.512604,350.975403,-1.000000,0.000000,0.000000
482149607.036560,0.196228,-0.015381,-1.052963,0.019864,0.011554,0.000430,0.999803,0.000660,-0.019862,-0.000430,0.999933,0.011553,0.019868,-0.011543,0.999736,0.019862,-0.011553,-0.999736,-0.243220,0.010134,-0.067998,-0.005034,-0.002008,-0.002699,346.512604,350.975403,-1.000000,0.000000,0.000000
482149607.043983,0.141510,-0.005447,-1.060196,0.019800,0.011707,0.000376,0.999804,0.000608,-0.019797,-0.000376,0.999931,0.011706,0.019803,-0.011697,0.999735,0.019797,-0.011706,-0.999735,-0.070777,0.019763,-0.081457,0.004817,-0.000742,0.002272,346.512604,350.975403,-1.000000,0.000000,0.000000
482149607.055908,0.177521,-0.019028,-1.057999,0.019803,0.011694,0.000416,0.999804,0.000647,-0.019800,-0.000416,0.999932,0.011694,0.019807,-0.011683,0.999736,0.019800,-0.011694,-0.999736,0.130468,0.011099,-0.053548,0.002343,0.000417,0.004724,346.512604,350.975403,-1.000000,0.000000,0.000000
482149607.063826,0.000778,-0.000885,-1.080826,0.019803,0.011694,0.000416,0.999804,0.000647,-0.019800,-0.000416,0.999932,0.011694,0.019807,-0.011683,0.999736,0.019800,-0.011694,-0.999736,0.130468,0.011099,-0.053548,0.002343,0.000417,0.004724,346.512604,350.975403,-1.000000,0.000000,0.000000
482149607.073910,-0.169815,-0.003403,-1.063431,0.019861,0.011716,0.000412,0.999803,0.000644,-0.019858,-0.000412,0.999931,0.011716,0.019864,-0.011705,0.999734,0.019858,-0.011716,-0.999734,0.121652,0.006268,-0.060462,-0.005055,0.006138,0.004700,346.512604,350.975403,-1.000000,0.000000,0.000000
482149607.084616,-0.169815,-0.003403,-1.063431,0.019926,0.011744,0.000343,0.999801,0.000577,-0.019924,-0.000343,0.999931,0.011744,0.019929,-0.011734,0.999733,0.019924,-0.011744,-0.999733,0.157597,-0.007284,-0.058266,0.003638,0.007197,-0.013725,346.512604,350.975403,-1.000000,0.000000,0.000000
482149607.095769,-0.228149,-0.005325,-1.074646,0.020000,0.011694,0.000340,0.999800,0.000574,-0.019998,-0.000340,0.999932,0.011693,0.020003,-0.011684,0.999732,0.019998,-0.011693,-0.999732,-0.019220,0.010808,-0.081094,-0.000119,0.005008,0.003489,346.512604,350.975403,-1.000000,0.000000,0.000000
482149607.103720,-0.228149,-0.005325,-1.074646,0.020000,0.011694,0.000340,0.999800,0.000574,-0.019998,-0.000340,0.999932,0.011693,0.020003,-0.011684,0.999732,0.019998,-0.011693,-0.999732,-0.019220,0.010808,-0.081094,-0.000119,0.005008,0.003489,346.512604,350.975403,-1.000000,0.000000,0.000000
482149607.113788,-0.068588,-0.001526,-1.081329,0.019965,0.011711,0.000374,0.999801,0.000607,-0.019962,-0.000374,0.999931,0.011711,0.019968,-0.011701,0.999732,0.019962,-0.011711,-0.999732,-0.189777,0.008308,-0.063699,-0.000126,-0.007684,0.004700,346.512604,350.975403,-1.000000,0.000000,0.000000
482149607.124659,0.111954,-0.012772,-1.059448,0.019909,0.011728,0.000356,0.999802,0.000589,-0.019907,-0.000356,0.999931,0.011727,0.019912,-0.011718,0.999733,0.019907,-0.011727,-0.999733,-0.248056,0.006402,-0.074913,-0.004993,-0.003168,0.003749,346.512604,350.975403,-1.000000,0.000000,0.000000
482149607.134342,0.164429,-0.007919,-1.067886,0.019909,0.011728,0.000356,0.999802,0.000589,-0.019907,-0.000356,0.999931,0.011727,0.019912,-0.011718,0.999733,0.019907,-0.011727,-0.999733,-0.248056,0.006402,-0.074913,-0.004993,-0.003168,0.003749,346.512604,350.975403,-1.000000,0.000000,0.000000
482149607.144137,0.299149,-0.005508,-1.061020,0.019917,0.011691,0.000369,0.999802,0.000602,-0.019915,-0.000369,0.999932,0.011691,0.019920,-0.011681,0.999733,0.019915,-0.011691,-0.999733,-0.088503,0.010165,-0.081596,-0.001284,0.002611,0.001313,346.512604,350.975403,-1.000000,0.000000,0.000000
482149607.154097,0.192017,-0.008270,-1.042206,0.019990,0.011642,0.000312,0.999800,0.000544,-0.019988,-0.000312,0.999932,0.011641,0.019993,-0.011633,0.999732,0.019988,-0.011641,-0.999732,0.144441,0.003722,-0.068154,-0.004967,0.007162,-0.003621,346.512604,350.975403,-1.000000,0.000000,0.000000
482149607.164276,0.140533,0.000397,-1.081772,0.019990,0.011642,0.000312,0.999800,0.000544,-0.019988,-0.000312,0.999932,0.011641,0.019993,-0.011633,0.999732,0.019988,-0.011641,-0.999732,0.144441,0.003722,-0.068154,-0.004967,0.007162,-0.003621,346.512604,350.975403,-1.000000,0.000000,0.000000
482149607.174135,0.107834,-0.015472,-1.028122,0.020010,0.011646,0.000258,0.999800,0.000491,-0.020008,-0.000258,0.999932,0.011646,0.020012,-0.011638,0.999732,0.020008,-0.011646,-0.999732,0.144421,0.003727,-0.068154,0.003665,0.002604,-0.003588,346.512604,350.975403,-1.000000,0.000000,0.000000
482149607.184500,-0.101242,-0.001938,-1.088425,0.020028,0.011734,0.000163,0.999799,0.000398,-0.020026,-0.000163,0.999931,0.011733,0.020029,-0.011728,0.999731,0.020026,-0.011733,-0.999731,0.171991,0.003463,-0.042475,0.002427,-0.002013,-0.002371,346.512604,350.975403,-1.000000,0.000000,0.000000
482149607.193453,-0.101242,-0.001938,-1.088425,0.020028,0.011734,0.000163,0.999799,0.000398,-0.020026,-0.000163,0.999931,0.011733,0.020029,-0.011728,0.999731,0.020026,-0.011733,-0.999731,0.171991,0.003463,-0.042475,0.002427,-0.002013,-0.002371,346.512604,350.975403,-1.000000,0.000000,0.000000
482149607.203356,-0.169861,-0.003357,-1.056564,0.020087,0.011715,0.000176,0.999798,0.000411,-0.020085,-0.000176,0.999931,0.011715,0.020088,-0.011709,0.999730,0.020085,-0.011715,-0.999730,0.120449,0.012112,-0.082042,-0.002516,0.008376,0.001316,346.512604,350.975403,-1.000000,0.000000,0.000000
482149607.214227,-0.184387,-0.017960,-1.053741,0.020099,0.011744,0.000165,0.999798,0.000401,-0.020096,-0.000165,0.999931,0.011744,0.020100,-0.011738,0.999729,0.020096,-0.011744,-0.999729,-0.121338,0.009806,-0.088696,0.003625,0.001554,0.008720,346.512604,350.975403,-1.000000,0.000000,0.000000
482149607.225427,-0.160873,0.001251,-1.080017,0.020099,0.011744,0.000165,0.999798,0.000401,-0.020096,-0.000165,0.999931,0.011744,0.020100,-0.011738,0.999729,0.020096,-0.011744,-0.999729,-0.121338,0.009806,-0.088696,0.003625,0.001554,0.008720,346.512604,350.975403,-1.000000,0.000000,0.000000
482149607.233938,0.004639,-0.011505,-1.027893,0.020029,0.011762,0.000172,0.999799,0.000407,-0.020026,-0.000172,0.999931,0.011762,0.020030,-0.011756,0.999730,0.020026,-0.011762,-0.999730,-0.189887,0.008405,-0.056834,-0.000046,-0.007794,-0.001160,346.512604,350.975403,-1.000000,0.000000,0.000000
482149607.244220,0.116028,-0.008133,-1.091736,0.020024,0.011838,0.000130,0.999799,0.000367,-0.020022,-0.000130,0.999930,0.011838,0.020025,-0.011833,0.999729,0.020022,-0.011838,-0.999729,-0.180895,0.013089,-0.080288,-0.002506,0.001416,-0.002388,346.512604,350.975403,-1.000000,0.000000,0.000000
482149607.255233,0.256256,0.000397,-1.043701,0.020024,0.011838,0.000130,0.999799,0.000367,-0.020022,-0.000130,0.999930,0.011838,0.020025,-0.011833,0.999729,0.020022,-0.011838,-0.999729,-0.180895,0.013089,-0.080288,-0.002506,0.001416,-0.002388,346.512604,350.975403,-1.000000,0.000000,0.000000
482149607.264110,0.209290,-0.014801,-1.079330,0.020050,0.011892,0.000112,0.999799,0.000351,-0.020047,-0.000112,0.999929,0.011891,0.020050,-0.011887,0.999728,0.020047,-0.011891,-0.999728,-0.180921,0.013142,-0.080289,0.004885,-0.001975,0.000103,346.512604,350.975403,-1.000000,0.000000,0.000000
482149607.274271,0.160126,0.006058,-1.067917,0.020072,0.011903,0.000162,0.999798,0.000401,-0.020070,-0.000162,0.999929,0.011903,0.020073,-0.011897,0.999728,0.020070,-0.011903,-0.999728,0.095958,0.003770,-0.092008,-0.000077,0.003769,0.002560,346.512604,350.975403,-1.000000,0.000000,0.000000
482149607.285006,0.185043,-0.001328,-1.062836,0.020072,0.011903,0.000162,0.999798,0.000401,-0.020070,-0.000162,0.999929,0.011903,0.020073,-0.011897,0.999728,0.020070,-0.011903,-0.999728,0.095958,0.003770,-0.092008,-0.000077,0.003769,0.002560,346.512604,350.975403,-1.000000,0.000000,0.000000
482149607.294552,0.185043,-0.001328,-1.062836,0.020081,0.011938,0.000162,0.999798,0.000402,-0.020078,-0.000162,0.999929,0.011938,0.020082,-0.011932,0.999727,0.020078,-0.011938,-0.999727,0.236178,0.012335,-0.043974,0.001163,0.000293,0.000098,346.512604,350.975403,-1.000000,0.000000,0.000000
482149607.303669,-0.204056,-0.025482,-1.048996,0.020030,0.011956,0.000206,0.999799,0.000445,-0.020028,-0.000206,0.999929,0.011956,0.020032,-0.011949,0.999728,0.020028,-0.011956,-0.999728,0.140098,0.018013,-0.068189,-0.001300,-0.004355,-0.001152,346.512604,350.975403,-1.000000,0.000000,0.000000
482149607.321731,-0.238144,-0.009949,-1.051208,0.019960,0.011896,0.000237,0.999801,0.000475,-0.019957,-0.000237,0.999929,0.011895,0.019961,-0.011888,0.999730,0.019957,-0.011895,-0.999730,0.165086,0.010568,-0.063106,-0.007479,-0.005522,0.002512,346.512604,350.975403,-1.000000,0.000000,0.000000
482149607.325197,-0.238144,-0.009949,-1.051208,0.019960,0.011896,0.000237,0.999801,0.000475,-0.019957,-0.000237,0.999929,0.011895,0.019961,-0.011888,0.999730,0.019957,-0.011895,-0.999730,0.165086,0.010568,-0.063106,-0.007479,-0.005522,0.002512,346.512604,350.975403,-1.000000,0.000000,0.000000
482149607.333951,-0.138092,-0.014648,-1.022049,0.019965,0.011920,0.000317,0.999801,0.000554,-0.019962,-0.000317,0.999929,0.011919,0.019968,-0.011911,0.999730,0.019962,-0.011919,-0.999730,-0.224018,-0.013563,-0.049266,-0.001323,0.001482,0.006244,346.512604,350.975403,-1.000000,0.000000,0.000000
482149607.344267,-0.018082,0.005310,-1.099579,0.019962,0.011962,0.000377,0.999801,0.000615,-0.019960,-0.000377,0.999928,0.011962,0.019965,-0.011952,0.999729,0.019960,-0.011962,-0.999729,-0.369096,0.006011,-0.070888,0.004856,0.001494,0.002579,346.512604,350.975403,-1.000000,0.000000,0.000000
482149607.354376,0.186310,-0.021011,-1.033432,0.019962,0.011962,0.000377,0.999801,0.000615,-0.019960,-0.000377,0.999928,0.011962,0.019965,-0.011952,0.999729,0.019960,-0.011962,-0.999729,-0.369096,0.006011,-0.070888,0.004856,0.001494,0.002579,346.512604,350.975403,-1.000000,0.000000,0.000000
482149607.363976,0.322998,0.000778,-1.089264,0.020024,0.011955,0.000385,0.999799,0.000624,-0.020021,-0.000385,0.999928,0.011954,0.020027,-0.011944,0.999728,0.020021,-0.011954,-0.999728,-0.158113,-0.002694,-0.022321,0.003632,0.007239,0.000120,346.512604,350.975403,-1.000000,0.000000,0.000000
482149607.374189,0.095123,-0.006699,-1.087006,0.020049,0.011966,0.000367,0.999799,0.000607,-0.020046,-0.000367,0.999928,0.011965,0.020052,-0.011956,0.999727,0.020046,-0.011965,-0.999727,-0.038128,0.017276,-0.099851,0.001172,0.001427,-0.002362,346.512604,350.975403,-1.000000,0.000000,0.000000
482149607.384009,0.156326,-0.009552,-1.039520,0.020049,0.011966,0.000367,0.999799,0.000607,-0.020046,-0.000367,0.999928,0.011965,0.020052,-0.011956,0.999727,0.020046,-0.011965,-0.999727,-0.038128,0.017276,-0.099851,0.001172,0.001427,-0.002362,346.512604,350.975403,-1.000000,0.000000,0.000000
482149607.394668,-0.045853,0.001022,-1.082153,0.020044,0.012072,0.000374,0.999799,0.000615,-0.020041,-0.000374,0.999927,0.012072,0.020047,-0.012062,0.999726,0.020041,-0.012072,-0.999726,0.302957,0.012850,-0.089538,0.012244,0.002733,0.006307,346.512604,350.975403,-1.000000,0.000000,0.000000
482149607.405598,-0.210281,-0.001846,-1.093124,0.020036,0.012133,0.000427,0.999799,0.000670,-0.020033,-0.000427,0.999926,0.012132,0.020040,-0.012121,0.999726,0.020033,-0.012132,-0.999726,0.075090,0.005434,-0.087280,0.004859,-0.001980,0.001342,346.512604,350.975403,-1.000000,0.000000,0.000000
482149607.414018,-0.210281,-0.001846,-1.093124,0.020036,0.012133,0.000427,0.999799,0.000670,-0.020033,-0.000427,0.999926,0.012132,0.020040,-0.012121,0.999726,0.020033,-0.012132,-0.999726,0.075090,0.005434,-0.087280,0.004859,-0.001980,0.001342,346.512604,350.975403,-1.000000,0.000000,0.000000
482149607.423717,-0.333435,-0.003189,-1.056793,0.020087,0.012215,0.000410,0.999798,0.000655,-0.020084,-0.000410,0.999925,0.012215,0.020091,-0.012204,0.999724,0.020084,-0.012215,-0.999724,0.136242,0.002663,-0.039797,-0.000076,0.004924,0.002562,346.512604,350.975403,-1.000000,0.000000,0.000000
482149607.434230,-0.253983,0.003891,-1.101273,0.020067,0.012202,0.000387,0.999798,0.000632,-0.020064,-0.000387,0.999925,0.012201,0.020071,-0.012191,0.999724,0.020064,-0.012201,-0.999724,-0.065917,0.013224,-0.082429,0.002387,-0.000921,-0.006060,346.512604,350.975403,-1.000000,0.000000,0.000000
482149607.445375,-0.120941,-0.020111,-1.042511,0.020022,0.012230,0.000406,0.999799,0.000651,-0.020019,-0.000406,0.999925,0.012230,0.020026,-0.012219,0.999725,0.020019,-0.012230,-0.999725,-0.353454,0.009041,-0.057068,0.004829,-0.003150,0.001334,346.512604,350.975403,-1.000000,0.000000,0.000000
482149607.454441,-0.086151,-0.015045,-1.077545,0.020022,0.012230,0.000406,0.999799,0.000651,-0.020019,-0.000406,0.999925,0.012230,0.020026,-0.012219,0.999725,0.020019,-0.012230,-0.999725,-0.353454,0.009041,-0.057068,0.004829,-0.003150,0.001334,346.512604,350.975403,-1.000000,0.000000,0.000000
482149607.463538,0.216888,-0.001068,-1.078293,0.020003,0.012307,0.000400,0.999800,0.000646,-0.020000,-0.000400,0.999924,0.012307,0.020006,-0.012296,0.999724,0.020000,-0.012307,-0.999724,-0.273983,0.016198,-0.101548,0.007302,-0.007773,-0.001124,346.512604,350.975403,-1.000000,0.000000,0.000000
482149607.474873,0.352707,-0.009445,-1.047882,0.019997,0.012312,0.000449,0.999800,0.000695,-0.019994,-0.000449,0.999924,0.012312,0.020001,-0.012300,0.999724,0.019994,-0.012312,-0.999724,-0.106145,-0.002734,-0.077821,0.009779,0.000307,-0.003562,346.512604,350.975403,-1.000000,0.000000,0.000000
482149607.484157,0.196930,-0.004456,-1.050003,0.019997,0.012312,0.000449,0.999800,0.000695,-0.019994,-0.000449,0.999924,0.012312,0.020001,-0.012300,0.999724,0.019994,-0.012312,-0.999724,-0.106145,-0.002734,-0.077821,0.009779,0.000307,-0.003562,346.512604,350.975403,-1.000000,0.000000,0.000000
482149607.493926,0.216080,-0.013840,-1.061630,0.019988,0.012275,0.000451,0.999800,0.000696,-0.019985,-0.000451,0.999925,0.012275,0.019992,-0.012263,0.999725,0.019985,-0.012275,-0.999725,-0.106136,-0.002771,-0.077820,-0.007508,-0.003227,0.002509,346.512604,350.975403,-1.000000,0.000000,0.000000
482149607.504883,0.126724,-0.014923,-1.038773,0.019982,0.012382,0.000535,0.999800,0.000782,-0.019979,-0.000535,0.999923,0.012382,0.019987,-0.012369,0.999724,0.019979,-0.012382,-0.999724,0.332728,0.002937,-0.048158,-0.000107,0.001444,0.002550,346.512604,350.975403,-1.000000,0.000000,0.000000
482149607.514358,0.126724,-0.014923,-1.038773,0.019982,0.012382,0.000535,0.999800,0.000782,-0.019979,-0.000535,0.999923,0.012382,0.019987,-0.012369,0.999724,0.019979,-0.012382,-0.999724,0.332728,0.002937,-0.048158,-0.000107,0.001444,0.002550,346.512604,350.975403,-1.000000,0.000000,0.000000
482149607.523950,-0.110336,-0.002579,-1.064957,0.020047,0.012412,0.000559,0.999799,0.000808,-0.020044,-0.000559,0.999923,0.012412,0.020052,-0.012398,0.999722,0.020044,-0.012412,-0.999722,0.176886,0.007956,-0.050281,0.007287,0.010756,0.005061,346.512604,350.975403,-1.000000,0.000000,0.000000
482149607.534614,-0.216156,-0.018280,-1.045166,0.020052,0.012405,0.000627,0.999799,0.000875,-0.020049,-0.000627,0.999923,0.012405,0.020058,-0.012390,0.999722,0.020049,-0.012405,-0.999722,0.106676,-0.002518,-0.039051,0.003592,-0.000839,0.002563,346.512604,350.975403,-1.000000,0.000000,0.000000
482149607.543985,-0.231857,-0.020065,-1.059982,0.020052,0.012405,0.000627,0.999799,0.000875,-0.020049,-0.000627,0.999923,0.012405,0.020058,-0.012390,0.999722,0.020049,-0.012405,-0.999722,0.106676,-0.002518,-0.039051,0.003592,-0.000839,0.002563,346.512604,350.975403,-1.000000,0.000000,0.000000
482149607.554005,-0.174789,0.002548,-1.076218,0.020044,0.012482,0.000596,0.999799,0.000846,-0.020041,-0.000596,0.999922,0.012481,0.020050,-0.012467,0.999721,0.020041,-0.012481,-0.999721,-0.130377,0.009903,-0.065235,0.007308,-0.000855,-0.002344,346.512604,350.975403,-1.000000,0.000000,0.000000
482149607.564077,0.037445,-0.007401,-1.061935,0.020110,0.012396,0.000623,0.999797,0.000873,-0.020107,-0.000623,0.999923,0.012396,0.020116,-0.012381,0.999721,0.020107,-0.012396,-0.999721,-0.236263,-0.005884,-0.045445,-0.001317,0.000218,-0.004844,346.512604,350.975403,-1.000000,0.000000,0.000000
482149607.575536,0.140564,-0.000595,-1.082764,0.020110,0.012396,0.000623,0.999797,0.000873,-0.020107,-0.000623,0.999923,0.012396,0.020116,-0.012381,0.999721,0.020107,-0.012396,-0.999721,-0.236263,-0.005884,-0.045445,-0.001317,0.000218,-0.004844,346.512604,350.975403,-1.000000,0.000000,0.000000
482149607.584289,0.326874,-0.003067,-1.060806,0.020056,0.012389,0.000630,0.999799,0.000879,-0.020053,-0.000630,0.999923,0.012389,0.020063,-0.012374,0.999722,0.020053,-0.012389,-0.999722,-0.251911,-0.007676,-0.060260,-0.002583,-0.005481,0.004990,346.512604,350.975403,-1.000000,0.000000,0.000000
482149607.594499,0.326874,-0.003067,-1.060806,0.020106,0.012370,0.000692,0.999797,0.000941,-0.020103,-0.000692,0.999923,0.012370,0.020113,-0.012353,0.999721,0.020103,-0.012370,-0.999721,0.017342,0.004969,-0.062214,-0.000121,0.009486,-0.001143,346.512604,350.975403,-1.000000,0.000000,0.000000
482149607.606143,0.258896,-0.017731,-1.074066,0.020106,0.012370,0.000692,0.999797,0.000941,-0.020103,-0.000692,0.999923,0.012370,0.020113,-0.012353,0.999721,0.020103,-0.012370,-0.999721,0.017342,0.004969,-0.062214,-0.000121,0.009486,-0.001143,346.512604,350.975403,-1.000000,0.000000,0.000000
482149607.614003,0.158279,0.001114,-1.070862,0.020097,0.012339,0.000711,0.999798,0.000959,-0.020094,-0.000711,0.999924,0.012339,0.020104,-0.012322,0.999722,0.020094,-0.012339,-0.999722,0.120470,0.011744,-0.083042,-0.001381,-0.002008,0.006220,346.512604,350.975403,-1.000000,0.000000,0.000000
482149607.624176,-0.117386,0.003479,-1.066971,0.020125,0.012421,0.000711,0.999797,0.000961,-0.020122,-0.000711,0.999923,0.012420,0.020132,-0.012403,0.999720,0.020122,-0.012420,-0.999720,0.238774,-0.005310,-0.074346,0.004810,0.002592,-0.001131,346.512604,350.975403,-1.000000,0.000000,0.000000
482149607.634837,-0.240845,-0.021805,-1.048279,0.020144,0.012432,0.000724,0.999797,0.000974,-0.020141,-0.000724,0.999922,0.012431,0.020152,-0.012414,0.999720,0.020141,-0.012431,-0.999720,0.238754,-0.005299,-0.074346,-0.001368,0.002580,0.002534,346.512604,350.975403,-1.000000,0.000000,0.000000
482149607.644139,-0.371033,-0.003510,-1.067841,0.020144,0.012432,0.000724,0.999797,0.000974,-0.020141,-0.000724,0.999922,0.012431,0.020152,-0.012414,0.999720,0.020141,-0.012431,-0.999720,0.238754,-0.005299,-0.074346,-0.001368,0.002580,0.002534,346.512604,350.975403,-1.000000,0.000000,0.000000
482149607.654376,-0.235794,-0.014206,-1.087448,0.020155,0.012440,0.000659,0.999797,0.000910,-0.020152,-0.000659,0.999922,0.012440,0.020162,-0.012424,0.999720,0.020152,-0.012440,-0.999720,-0.137538,0.015919,-0.067251,0.003573,0.002594,0.000094,346.512604,350.975403,-1.000000,0.000000,0.000000
482149607.665111,-0.166763,-0.010300,-1.047745,0.020155,0.012440,0.000659,0.999797,0.000910,-0.020152,-0.000659,0.999922,0.012440,0.020162,-0.012424,0.999720,0.020152,-0.012440,-0.999720,-0.137538,0.015919,-0.067251,0.003573,0.002594,0.000094,346.512604,350.975403,-1.000000,0.000000,0.000000
482149607.674362,-0.051544,-0.008820,-1.085144,0.020141,0.012427,0.000654,0.999797,0.000904,-0.020138,-0.000654,0.999923,0.012426,0.020148,-0.012411,0.999720,0.020138,-0.012426,-0.999720,-0.260983,-0.009378,-0.048559,-0.001361,-0.000905,0.000066,346.512604,350.975403,-1.000000,0.000000,0.000000
482149607.684124,-0.051544,-0.008820,-1.085144,0.020180,0.012479,0.000727,0.999796,0.000979,-0.020177,-0.000727,0.999922,0.012479,0.020187,-0.012462,0.999719,0.020177,-0.012479,-0.999719,-0.255971,-0.001727,-0.087730,0.001102,0.002587,0.001314,346.512604,350.975403,-1.000000,0.000000,0.000000
482149607.694038,0.136841,-0.021133,-1.047501,0.020199,0.012473,0.000746,0.999796,0.000997,-0.020196,-0.000746,0.999922,0.012472,0.020207,-0.012455,0.999718,0.020196,-0.012472,-0.999718,-0.186959,0.002173,-0.048027,-0.002606,0.001427,0.003757,346.512604,350.975403,-1.000000,0.000000,0.000000
482149607.703994,0.229996,-0.016052,-1.058594,0.020199,0.012473,0.000746,0.999796,0.000997,-0.020196,-0.000746,0.999922,0.012472,0.020207,-0.012455,0.999718,0.020196,-0.012472,-0.999718,-0.186959,0.002173,-0.048027,-0.002606,0.001427,0.003757,346.512604,350.975403,-1.000000,0.000000,0.000000
482149607.714165,0.165298,0.001862,-1.085510,0.020193,0.012508,0.000866,0.999796,0.001119,-0.020190,-0.000866,0.999921,0.012508,0.020202,-0.012488,0.999718,0.020190,-0.012508,-0.999718,-0.071734,0.003688,-0.085426,-0.003841,-0.007820,0.003737,346.512604,350.975403,-1.000000,0.000000,0.000000
482149607.724235,0.240662,-0.001495,-1.074173,0.020161,0.012506,0.000825,0.999796,0.001077,-0.020159,-0.000825,0.999921,0.012506,0.020170,-0.012487,0.999719,0.020159,-0.012506,-0.999719,0.116682,-0.008628,-0.047782,0.001136,-0.005591,-0.009778,346.512604,350.975403,-1.000000,0.000000,0.000000
482149607.734337,0.028412,0.000641,-1.069839,0.020161,0.012506,0.000825,0.999796,0.001077,-0.020159,-0.000825,0.999921,0.012506,0.020170,-0.012487,0.999719,0.020159,-0.012506,-0.999719,0.116682,-0.008628,-0.047782,0.001136,-0.005591,-0.009778,346.512604,350.975403,-1.000000,0.000000,0.000000
482149607.743978,-0.174774,-0.001343,-1.067383,0.020189,0.012485,0.000791,0.999796,0.001043,-0.020186,-0.000791,0.999922,0.012485,0.020197,-0.012466,0.999718,0.020186,-0.012485,-0.999718,0.145112,0.014346,-0.085792,0.004798,0.001469,0.002560,346.512604,350.975403,-1.000000,0.000000,0.000000
482149607.754203,-0.308594,-0.008545,-1.046799,0.020169,0.012515,0.000857,0.999796,0.001109,-0.020166,-0.000857,0.999921,0.012515,0.020178,-0.012495,0.999718,0.020166,-0.012515,-0.999718,0.220496,0.011019,-0.074455,-0.001393,-0.000822,0.009914,346.512604,350.975403,-1.000000,0.000000,0.000000
482149607.764353,-0.269211,0.002594,-1.046494,0.020169,0.012515,0.000857,0.999796,0.001109,-0.020166,-0.000857,0.999921,0.012515,0.020178,-0.012495,0.999718,0.020166,-0.012515,-0.999718,0.220496,0.011019,-0.074455,-0.001393,-0.000822,0.009914,346.512604,350.975403,-1.000000,0.000000,0.000000
482149607.774045,-0.059982,0.010269,-1.076340,0.020151,0.012539,0.000990,0.999796,0.001242,-0.020148,-0.000990,0.999921,0.012538,0.020162,-0.012516,0.999718,0.020148,-0.012538,-0.999718,-0.194922,0.011196,-0.067664,-0.001381,0.001456,0.006225,346.512604,350.975403,-1.000000,0.000000,0.000000
482149607.783269,-0.059982,0.010269,-1.076340,0.020154,0.012538,0.001021,0.999796,0.001273,-0.020151,-0.001020,0.999921,0.012538,0.020165,-0.012515,0.999718,0.020151,-0.012538,-0.999718,-0.328744,0.003993,-0.047080,0.003578,0.006047,-0.001132,346.512604,350.975403,-1.000000,0.000000,0.000000
482149607.796446,0.190323,-0.014313,-1.062805,0.020154,0.012538,0.001021,0.999796,0.001273,-0.020151,-0.001020,0.999921,0.012538,0.020165,-0.012515,0.999718,0.020151,-0.012538,-0.999718,-0.328744,0.003993,-0.047080,0.003578,0.006047,-0.001132,346.512604,350.975403,-1.000000,0.000000,0.000000
482149607.804103,0.256546,-0.002792,-1.075058,0.020091,0.012584,0.001045,0.999797,0.001298,-0.020088,-0.001045,0.999920,0.012584,0.020103,-0.012560,0.999719,0.020088,-0.012584,-0.999719,-0.289299,0.015178,-0.046775,-0.000128,-0.003206,0.000068,346.512604,350.975403,-1.000000,0.000000,0.000000
482149607.813399,0.362793,-0.017548,-1.046875,0.020122,0.012606,0.001010,0.999797,0.001263,-0.020119,-0.001009,0.999920,0.012606,0.020134,-0.012583,0.999718,0.020119,-0.012606,-0.999718,-0.080102,0.022875,-0.076622,0.006057,0.004879,-0.004815,346.512604,350.975403,-1.000000,0.000000,0.000000
482149607.829174,0.245743,-0.013321,-1.050644,0.020121,0.012497,0.001067,0.999797,0.001318,-0.020118,-0.001067,0.999921,0.012496,0.020133,-0.012472,0.999720,0.020118,-0.012496,-0.999720,0.236428,0.009704,-0.075338,-0.005067,0.004863,0.002520,346.512604,350.975403,-1.000000,0.000000,0.000000
482149607.833776,0.245743,-0.013321,-1.050644,0.020121,0.012497,0.001067,0.999797,0.001318,-0.020118,-0.001067,0.999921,0.012496,0.020133,-0.012472,0.999720,0.020118,-0.012496,-0.999720,0.236428,0.009704,-0.075338,-0.005067,0.004863,0.002520,346.512604,350.975403,-1.000000,0.000000,0.000000
482149607.844235,0.102020,-0.011642,-1.062454,0.020112,0.012495,0.001043,0.999797,0.001294,-0.020109,-0.001043,0.999921,0.012495,0.020124,-0.012471,0.999720,0.020109,-0.012495,-0.999720,0.342684,-0.005053,-0.047155,-0.003816,-0.002109,-0.003641,346.512604,350.975403,-1.000000,0.000000,0.000000
482149607.854195,-0.135590,-0.021988,-1.069077,0.020117,0.012500,0.001123,0.999797,0.001374,-0.020114,-0.001122,0.999921,0.012500,0.020129,-0.012474,0.999720,0.020114,-0.012500,-0.999720,0.225629,-0.000821,-0.050924,0.002331,-0.000858,0.002545,346.512604,350.975403,-1.000000,0.000000,0.000000
482149607.863676,-0.268982,-0.001511,-1.066101,0.020117,0.012500,0.001123,0.999797,0.001374,-0.020114,-0.001122,0.999921,0.012500,0.020129,-0.012474,0.999720,0.020114,-0.012500,-0.999720,0.225629,-0.000821,-0.050924,0.002331,-0.000858,0.002545,346.512604,350.975403,-1.000000,0.000000,0.000000
482149607.874831,-0.268982,-0.001511,-1.066101,0.020068,0.012452,0.001202,0.999798,0.001451,-0.020065,-0.001202,0.999922,0.012452,0.020082,-0.012425,0.999721,0.020065,-0.012452,-0.999721,0.225678,-0.000869,-0.050923,-0.008790,-0.005504,0.008642,346.512604,350.975403,-1.000000,0.000000,0.000000
482149607.883518,-0.176666,-0.020798,-1.011551,0.020135,0.012462,0.001251,0.999796,0.001502,-0.020132,-0.001251,0.999922,0.012462,0.020149,-0.012434,0.999720,0.020132,-0.012462,-0.999720,-0.155721,-0.009526,-0.069357,-0.006305,0.003710,0.003744,346.512604,350.975403,-1.000000,0.000000,0.000000
482149607.894113,-0.175430,-0.021072,-1.047806,0.020135,0.012462,0.001251,0.999796,0.001502,-0.020132,-0.001251,0.999922,0.012462,0.020149,-0.012434,0.999720,0.020132,-0.012462,-0.999720,-0.155721,-0.009526,-0.069357,-0.006305,0.003710,0.003744,346.512604,350.975403,-1.000000,0.000000,0.000000
482149607.903912,0.052673,-0.018677,-1.070663,0.020148,0.012468,0.001306,0.999796,0.001557,-0.020145,-0.001305,0.999921,0.012468,0.020163,-0.012439,0.999719,0.020145,-0.012468,-0.999719,-0.289127,0.010957,-0.066382,0.004789,-0.001975,0.005016,346.512604,350.975403,-1.000000,0.000000,0.000000
482149607.914220,0.191544,-0.024277,-1.059860,0.020181,0.012461,0.001421,0.999795,0.001672,-0.020178,-0.001421,0.999921,0.012461,0.020197,-0.012430,0.999719,0.020178,-0.012461,-0.999719,-0.195608,-0.008611,-0.048087,-0.002606,0.001426,0.003757,346.512604,350.975403,-1.000000,0.000000,0.000000
482149607.924489,0.335220,-0.009460,-1.099976,0.020181,0.012461,0.001421,0.999795,0.001672,-0.020178,-0.001421,0.999921,0.012461,0.020197,-0.012430,0.999719,0.020178,-0.012461,-0.999719,-0.195608,-0.008611,-0.048087,-0.002606,0.001426,0.003757,346.512604,350.975403,-1.000000,0.000000,0.000000
482149607.933794,0.284363,-0.019836,-1.022934,0.020222,0.012442,0.001434,0.999794,0.001685,-0.020220,-0.001434,0.999922,0.012442,0.020239,-0.012411,0.999718,0.020220,-0.012442,-0.999718,0.032454,-0.006235,-0.070945,-0.002581,0.002518,-0.003628,346.512604,350.975403,-1.000000,0.000000,0.000000
482149607.944226,0.161819,-0.031509,-1.039505,0.020244,0.012440,0.001447,0.999794,0.001699,-0.020241,-0.001447,0.999922,0.012440,0.020261,-0.012408,0.999718,0.020241,-0.012440,-0.999718,0.171302,-0.011837,-0.060143,0.012193,-0.001933,0.003818,346.512604,350.975403,-1.000000,0.000000,0.000000
482149607.954962,-0.046707,-0.009735,-1.061569,0.020244,0.012440,0.001447,0.999794,0.001699,-0.020241,-0.001447,0.999922,0.012440,0.020261,-0.012408,0.999718,0.020241,-0.012440,-0.999718,0.171302,-0.011837,-0.060143,0.012193,-0.001933,0.003818,346.512604,350.975403,-1.000000,0.000000,0.000000
482149607.964099,-0.234604,-0.029007,-1.064880,0.020253,0.012469,0.001466,0.999793,0.001718,-0.020250,-0.001466,0.999921,0.012469,0.020269,-0.012437,0.999717,0.020250,-0.012469,-0.999717,0.314971,0.003009,-0.100258,0.001090,0.001463,0.005005,346.512604,350.975403,-1.000000,0.000000,0.000000
482149607.974236,-0.350128,-0.007858,-1.064758,0.020325,0.012564,0.001550,0.999792,0.001805,-0.020322,-0.001549,0.999920,0.012564,0.020343,-0.012530,0.999715,0.020322,-0.012564,-0.999715,0.141497,-0.018945,-0.039790,0.009732,0.003813,0.002586,346.512604,350.975403,-1.000000,0.000000,0.000000
482149607.985077,-0.250717,-0.013901,-1.082657,0.020294,0.012534,0.001581,0.999792,0.001835,-0.020291,-0.001581,0.999920,0.012533,0.020312,-0.012499,0.999716,0.020291,-0.012533,-0.999716,-0.066998,0.002798,-0.061854,-0.001366,-0.004360,0.001291,346.512604,350.975403,-1.000000,0.000000,0.000000
482149607.995702,-0.250717,-0.013901,-1.082657,0.020294,0.012534,0.001581,0.999792,0.001835,-0.020291,-0.001581,0.999920,0.012533,0.020312,-0.012499,0.999716,0.020291,-0.012533,-0.999716,-0.066998,0.002798,-0.061854,-0.001366,-0.004360,0.001291,346.512604,350.975403,-1.000000,0.000000,0.000000
482149608.004735,-0.215439,-0.008331,-1.040253,0.020209,0.012520,0.001624,0.999794,0.001877,-0.020206,-0.001624,0.999920,0.012519,0.020228,-0.012484,0.999717,0.020206,-0.012519,-0.999717,-0.370334,0.004661,-0.065041,-0.003851,0.001449,0.007444,346.512604,350.975403,-1.000000,0.000000,0.000000
482149608.014187,-0.030792,-0.010101,-1.069321,0.020256,0.012524,0.001619,0.999793,0.001872,-0.020253,-0.001619,0.999920,0.012524,0.020275,-0.012489,0.999716,0.020253,-0.012524,-0.999716,-0.270970,-0.001377,-0.082940,-0.000111,0.002525,-0.004848,346.512604,350.975403,-1.000000,0.000000,0.000000
482149608.024134,0.167694,-0.024734,-1.051208,0.020256,0.012524,0.001619,0.999793,0.001872,-0.020253,-0.001619,0.999920,0.012524,0.020275,-0.012489,0.999716,0.020253,-0.012524,-0.999716,-0.270970,-0.001377,-0.082940,-0.000111,0.002525,-0.004848,346.512604,350.975403,-1.000000,0.000000,0.000000
482149608.034193,0.268768,-0.019806,-1.062241,0.020243,0.012420,0.001634,0.999793,0.001885,-0.020241,-0.001634,0.999922,0.012420,0.020262,-0.012384,0.999718,0.020241,-0.012420,-0.999718,-0.235679,0.004089,-0.040535,0.001093,-0.000857,0.003769,346.512604,350.975403,-1.000000,0.000000,0.000000
482149608.044200,0.234726,0.005386,-1.101669,0.020274,0.012450,0.001682,0.999793,0.001934,-0.020271,-0.001682,0.999921,0.012450,0.020294,-0.012413,0.999717,0.020271,-0.012450,-0.999717,-0.051063,0.002348,-0.069604,0.003549,0.001502,0.007478,346.512604,350.975403,-1.000000,0.000000,0.000000
482149608.054382,0.274445,-0.001251,-1.086670,0.020274,0.012450,0.001682,0.999793,0.001934,-0.020271,-0.001682,0.999921,0.012450,0.020294,-0.012413,0.999717,0.020271,-0.012450,-0.999717,-0.051063,0.002348,-0.069604,0.003549,0.001502,0.007478,346.512604,350.975403,-1.000000,0.000000,0.000000
482149608.063931,0.022415,0.008575,-1.091431,0.020190,0.012599,0.001777,0.999794,0.002031,-0.020187,-0.001777,0.999919,0.012599,0.020211,-0.012560,0.999717,0.020187,-0.012599,-0.999717,0.248581,-0.007207,-0.062524,0.007260,-0.000813,0.003798,346.512604,350.975403,-1.000000,0.000000,0.000000
482149608.073998,0.022415,0.008575,-1.091431,0.020204,0.012615,0.001711,0.999794,0.001966,-0.020201,-0.001711,0.999919,0.012614,0.020224,-0.012577,0.999716,0.020201,-0.012614,-0.999716,0.214525,0.018001,-0.101953,0.004830,0.001385,-0.007289,0.000000,0.000000,-1.000000,0.000000,0.000000
482149608.084975,-0.214447,-0.008347,-1.042221,0.020204,0.012615,0.001711,0.999794,0.001966,-0.020201,-0.001711,0.999919,0.012614,0.020224,-0.012577,0.999716,0.020201,-0.012614,-0.999716,0.214525,0.018001,-0.101953,0.004830,0.001385,-0.007289,0.000000,0.000000,-1.000000,0.000000,0.000000
482149608.093125,-0.387833,-0.011032,-1.050323,0.020276,0.012647,0.001725,0.999793,0.001981,-0.020273,-0.001725,0.999919,0.012647,0.020297,-0.012609,0.999714,0.020273,-0.012647,-0.999714,0.002142,0.021222,-0.091716,0.001028,0.000227,-0.001120,346.246704,350.709503,-1.000000,0.000000,0.000000
482149608.104236,-0.281128,0.000916,-1.037766,0.020229,0.012741,0.001724,0.999793,0.001982,-0.020226,-0.001724,0.999917,0.012741,0.020249,-0.012703,0.999714,0.020226,-0.012741,-0.999714,0.002190,0.021316,-0.091716,0.013355,-0.006603,0.000157,346.246704,350.709503,-1.000000,0.000000,0.000000
482149608.115494,-0.070053,0.011566,-1.060745,0.020229,0.012741,0.001724,0.999793,0.001982,-0.020226,-0.001724,0.999917,0.012741,0.020249,-0.012703,0.999714,0.020226,-0.012741,-0.999714,0.002190,0.021316,-0.091716,0.013355,-0.006603,0.000157,346.246704,350.709503,-1.000000,0.000000,0.000000
482149608.124241,0.193497,-0.027206,-1.047104,0.020193,0.012702,0.001763,0.999794,0.002019,-0.020190,-0.001763,0.999918,0.012701,0.020214,-0.012663,0.999715,0.020190,-0.012701,-0.999715,-0.408023,0.001669,-0.050608,-0.003908,-0.010201,-0.001159,346.246704,350.709503,-1.000000,0.000000,0.000000
482149608.134927,0.241760,0.006165,-1.116318,0.020190,0.012676,0.001794,0.999794,0.002050,-0.020187,-0.001794,0.999918,0.012676,0.020211,-0.012637,0.999716,0.020187,-0.012676,-0.999716,-0.301315,0.013591,-0.038050,-0.006384,0.000205,0.002540,346.246704,350.709503,-1.000000,0.000000,0.000000
482149608.144746,0.352798,-0.019211,-1.026352,0.020155,0.012721,0.001826,0.999795,0.002081,-0.020152,-0.001825,0.999917,0.012720,0.020177,-0.012681,0.999716,0.020152,-0.012720,-0.999716,0.173345,-0.014486,-0.047388,0.005957,-0.000882,0.000132,346.253967,350.716766,-1.000000,0.000000,0.000000
482149608.154234,0.229660,-0.001190,-1.062500,0.020155,0.012721,0.001826,0.999795,0.002081,-0.020152,-0.001825,0.999917,0.012720,0.020177,-0.012681,0.999716,0.020152,-0.012720,-0.999716,0.173345,-0.014486,-0.047388,0.005957,-0.000882,0.000132,346.253967,350.716766,-1.000000,0.000000,0.000000
482149608.164113,0.241653,-0.010239,-1.043808,0.020180,0.012773,0.001832,0.999794,0.002089,-0.020177,-0.001832,0.999917,0.012772,0.020202,-0.012733,0.999715,0.020177,-0.012772,-0.999715,0.221583,0.018937,-0.116603,0.010883,0.003793,0.002624,346.253967,350.716766,-1.000000,0.000000,0.000000
482149608.175705,0.086319,-0.014389,-1.074341,0.020185,0.012810,0.001815,0.999794,0.002073,-0.020182,-0.001815,0.999916,0.012810,0.020207,-0.012771,0.999714,0.020182,-0.012810,-0.999714,0.332617,-0.006401,-0.026638,-0.007610,-0.000979,0.000070,346.253967,350.716766,-1.000000,0.000000,0.000000
482149608.183552,0.086319,-0.014389,-1.074341,0.020185,0.012810,0.001815,0.999794,0.002073,-0.020182,-0.001815,0.999916,0.012810,0.020207,-0.012771,0.999714,0.020182,-0.012810,-0.999714,0.332617,-0.006401,-0.026638,-0.007610,-0.000979,0.000070,346.253967,350.716766,-1.000000,0.000000,0.000000
482149608.193746,-0.199249,-0.023514,-1.036209,0.020165,0.012802,0.001792,0.999795,0.002050,-0.020162,-0.001792,0.999916,0.012801,0.020186,-0.012763,0.999715,0.020162,-0.012801,-0.999715,0.209498,0.011611,-0.062785,-0.002660,0.002478,-0.004826,346.258057,350.720856,-1.000000,0.000000,0.000000
482149608.205238,-0.188492,-0.016800,-1.038101,0.020213,0.012720,0.001784,0.999794,0.002041,-0.020210,-0.001784,0.999918,0.012719,0.020235,-0.012681,0.999715,0.020210,-0.012719,-0.999715,0.066109,-0.001670,-0.074626,-0.005147,0.001359,0.001316,346.258057,350.720856,-1.000000,0.000000,0.000000
482149608.214078,-0.188492,-0.016800,-1.038101,0.020213,0.012720,0.001784,0.999794,0.002041,-0.020210,-0.001784,0.999918,0.012719,0.020235,-0.012681,0.999715,0.020210,-0.012719,-0.999715,0.066109,-0.001670,-0.074626,-0.005147,0.001359,0.001316,346.258057,350.720856,-1.000000,0.000000,0.000000
482149608.223795,-0.168625,-0.007477,-1.075195,0.020177,0.012741,0.001773,0.999794,0.002029,-0.020174,-0.001772,0.999917,0.012741,0.020198,-0.012703,0.999715,0.020174,-0.012741,-0.999715,-0.219423,-0.010773,-0.036494,-0.000203,-0.004412,-0.002364,346.258057,350.720856,-1.000000,0.000000,0.000000
482149608.234220,0.091278,-0.018372,-1.062531,0.020175,0.012732,0.001841,0.999794,0.002097,-0.020172,-0.001840,0.999917,0.012732,0.020197,-0.012692,0.999715,0.020172,-0.012732,-0.999715,-0.208664,-0.004068,-0.038386,0.002252,-0.002053,0.001344,346.258057,350.720856,-1.000000,0.000000,0.000000
482149608.246425,0.223663,-0.005890,-1.039032,0.020188,0.012700,0.001836,0.999794,0.002092,-0.020185,-0.001836,0.999918,0.012700,0.020210,-0.012660,0.999716,0.020185,-0.012700,-0.999716,-0.188810,0.005223,-0.075480,-0.000193,0.002496,-0.004815,346.264221,350.727020,-1.000000,0.000000,0.000000
482149608.254161,0.349930,-0.004745,-1.094971,0.020188,0.012700,0.001836,0.999794,0.002092,-0.020185,-0.001836,0.999918,0.012700,0.020210,-0.012660,0.999716,0.020185,-0.012700,-0.999716,-0.188810,0.005223,-0.075480,-0.000193,0.002496,-0.004815,346.264221,350.727020,-1.000000,0.000000,0.000000
482149608.264780,0.286484,-0.020996,-1.038605,0.020171,0.012762,0.001807,0.999794,0.002064,-0.020168,-0.001807,0.999917,0.012761,0.020192,-0.012722,0.999715,0.020168,-0.012761,-0.999715,0.071110,-0.005610,-0.062815,-0.008840,-0.003307,-0.001171,346.264221,350.727020,-1.000000,0.000000,0.000000
482149608.274205,0.160477,-0.005936,-1.076721,0.020171,0.012762,0.001807,0.999794,0.002064,-0.020168,-0.001807,0.999917,0.012761,0.020192,-0.012722,0.999715,0.020168,-0.012761,-0.999715,0.071110,-0.005610,-0.062815,-0.008840,-0.003307,-0.001171,346.264221,350.727020,-1.000000,0.000000,0.000000
482149608.284097,-0.115265,0.002350,-1.083618,0.020179,0.012801,0.001784,0.999794,0.002042,-0.020176,-0.001784,0.999916,0.012801,0.020200,-0.012762,0.999714,0.020176,-0.012801,-0.999714,0.203487,0.006911,-0.039317,0.005973,0.000230,-0.004791,346.264221,350.727020,-1.000000,0.000000,0.000000
482149608.293504,-0.115265,0.002350,-1.083618,0.020133,0.012823,0.001893,0.999795,0.002151,-0.020130,-0.001893,0.999916,0.012823,0.020156,-0.012782,0.999715,0.020130,-0.012823,-0.999715,0.266354,-0.008173,-0.038890,-0.005162,0.002555,0.006242,346.264221,350.727020,-1.000000,0.000000,0.000000
482149608.304469,-0.316086,-0.021439,-1.063522,0.020133,0.012823,0.001893,0.999795,0.002151,-0.020130,-0.001893,0.999916,0.012823,0.020156,-0.012782,0.999715,0.020130,-0.012823,-0.999715,0.266354,-0.008173,-0.038890,-0.005162,0.002555,0.006242,346.267242,350.730042,-1.000000,0.000000,0.000000
482149608.313378,-0.372131,0.001450,-1.068802,0.020191,0.012852,0.001966,0.999794,0.002225,-0.020188,-0.001966,0.999915,0.012852,0.020215,-0.012810,0.999714,0.020188,-0.012852,-0.999714,0.140289,0.006916,-0.077008,0.002239,0.008381,0.006284,346.267242,350.730042,-1.000000,0.000000,0.000000
482149608.324715,-0.247818,-0.013870,-1.071838,0.020189,0.012892,0.002093,0.999793,0.002353,-0.020186,-0.002093,0.999915,0.012892,0.020215,-0.012847,0.999713,0.020186,-0.012892,-0.999713,-0.336272,-0.008547,-0.063809,0.008415,-0.003154,0.002601,346.267242,350.730042,-1.000000,0.000000,0.000000
482149608.334597,-0.217300,-0.005493,-1.066727,0.020189,0.012892,0.002093,0.999793,0.002353,-0.020186,-0.002093,0.999915,0.012892,0.020215,-0.012847,0.999713,0.020186,-0.012892,-0.999713,-0.336272,-0.008547,-0.063809,0.008415,-0.003154,0.002601,346.267242,350.730042,-1.000000,0.000000,0.000000
482149608.345386,-0.001144,-0.004745,-1.074966,0.020169,0.012872,0.002082,0.999794,0.002341,-0.020166,-0.002082,0.999915,0.012872,0.020195,-0.012827,0.999714,0.020166,-0.012872,-0.999714,-0.336252,-0.008567,-0.063809,-0.003894,-0.002150,-0.004840,346.267242,350.730042,-1.000000,0.000000,0.000000
482149608.353889,0.199066,-0.018188,-1.023544,0.020191,0.012898,0.002090,0.999793,0.002350,-0.020188,-0.002090,0.999915,0.012898,0.020216,-0.012853,0.999713,0.020188,-0.012898,-0.999713,-0.268006,-0.000972,-0.072125,-0.006380,0.001350,0.001310,346.268707,350.731506,-1.000000,0.000000,0.000000
482149608.365059,0.325912,-0.003098,-1.067688,0.020142,0.012939,0.002114,0.999794,0.002374,-0.020139,-0.002114,0.999914,0.012938,0.020168,-0.012893,0.999713,0.020139,-0.012938,-0.999713,-0.237440,0.007445,-0.067013,0.008414,-0.004309,0.002599,346.268707,350.731506,-1.000000,0.000000,0.000000
482149608.374214,0.211105,-0.003067,-1.095963,0.020142,0.012939,0.002114,0.999794,0.002374,-0.020139,-0.002114,0.999914,0.012938,0.020168,-0.012893,0.999713,0.020139,-0.012938,-0.999713,-0.237440,0.007445,-0.067013,0.008414,-0.004309,0.002599,346.268707,350.731506,-1.000000,0.000000,0.000000
482149608.384343,0.232178,-0.015320,-1.089935,0.020080,0.012947,0.002122,0.999796,0.002382,-0.020077,-0.002122,0.999914,0.012946,0.020106,-0.012901,0.999715,0.020077,-0.012946,-0.999715,0.178990,-0.005242,-0.023830,0.004746,-0.005573,-0.007268,346.268707,350.731506,-1.000000,0.000000,0.000000
482149608.395528,-0.030334,0.012695,-1.072220,0.020065,0.013017,0.002134,0.999796,0.002395,-0.020062,-0.002134,0.999913,0.013016,0.020092,-0.012971,0.999714,0.020062,-0.013016,-0.999714,0.305850,0.009919,-0.067974,0.002249,0.001422,0.002580,346.268707,350.731506,-1.000000,0.000000,0.000000
482149608.403990,-0.030334,0.012695,-1.072220,0.020065,0.013017,0.002134,0.999796,0.002395,-0.020062,-0.002134,0.999913,0.013016,0.020092,-0.012971,0.999714,0.020062,-0.013016,-0.999714,0.305850,0.009919,-0.067974,0.002249,0.001422,0.002580,346.266388,350.729187,-1.000000,0.000000,0.000000
482149608.413905,-0.257950,-0.005676,-1.066040,0.020047,0.013001,0.002136,0.999796,0.002396,-0.020044,-0.002136,0.999913,0.013000,0.020074,-0.012955,0.999715,0.020044,-0.013000,-0.999715,0.212134,-0.002319,-0.090221,0.007197,-0.002050,-0.002327,346.266388,350.729187,-1.000000,0.000000,0.000000
482149608.424196,-0.426453,-0.012299,-1.052567,0.020033,0.012974,0.002084,0.999797,0.002343,-0.020030,-0.002084,0.999914,0.012973,0.020058,-0.012929,0.999715,0.020030,-0.012973,-0.999715,0.212148,-0.002346,-0.090220,-0.002668,0.000190,-0.002368,346.266388,350.729187,-1.000000,0.000000,0.000000
482149608.434207,-0.285950,-0.003983,-1.038803,0.020033,0.012974,0.002084,0.999797,0.002343,-0.020030,-0.002084,0.999914,0.012973,0.020058,-0.012929,0.999715,0.020030,-0.012973,-0.999715,0.212148,-0.002346,-0.090220,-0.002668,0.000190,-0.002368,346.266388,350.729187,-1.000000,0.000000,0.000000
482149608.443849,-0.151382,-0.022736,-1.077026,0.020026,0.012958,0.002086,0.999797,0.002345,-0.020023,-0.002086,0.999914,0.012957,0.020051,-0.012913,0.999716,0.020023,-0.012957,-0.999716,-0.277973,0.007281,-0.066324,-0.003914,0.000212,0.001319,346.266388,350.729187,-1.000000,0.000000,0.000000
482149608.454252,-0.033081,0.000885,-1.066360,0.020000,0.012938,0.002087,0.999797,0.002346,-0.019997,-0.002087,0.999914,0.012937,0.020025,-0.012893,0.999716,0.019997,-0.012937,-0.999716,-0.446449,0.000639,-0.052850,-0.002669,-0.002120,-0.002372,346.263916,350.726715,-1.000000,0.000000,0.000000
482149608.464055,0.197495,-0.025360,-1.056885,0.020000,0.012938,0.002087,0.999797,0.002346,-0.019997,-0.002087,0.999914,0.012937,0.020025,-0.012893,0.999716,0.019997,-0.012937,-0.999716,-0.446449,0.000639,-0.052850,-0.002669,-0.002120,-0.002372,346.263916,350.726715,-1.000000,0.000000,0.000000
482149608.474059,0.336945,-0.022812,-1.018631,0.020066,0.012946,0.002095,0.999796,0.002355,-0.020063,-0.002095,0.999914,0.012945,0.020092,-0.012901,0.999715,0.020063,-0.012945,-0.999715,-0.171445,-0.009790,-0.077311,0.001028,0.001381,-0.001119,346.263916,350.726715,-1.000000,0.000000,0.000000
482149608.484210,0.227722,-0.005096,-1.055649,0.020125,0.012998,0.002126,0.999795,0.002387,-0.020122,-0.002125,0.999913,0.012998,0.020151,-0.012952,0.999713,0.020122,-0.012998,-0.999713,-0.053203,0.013883,-0.066647,0.003476,0.004916,0.005053,346.263916,350.726715,-1.000000,0.000000,0.000000
482149608.495407,0.244827,-0.022141,-1.033005,0.020125,0.012998,0.002126,0.999795,0.002387,-0.020122,-0.002125,0.999913,0.012998,0.020151,-0.012952,0.999713,0.020122,-0.012998,-0.999713,-0.053203,0.013883,-0.066647,0.003476,0.004916,0.005053,346.263916,350.726715,-1.000000,0.000000,0.000000
482149608.503912,0.095261,-0.009750,-1.096817,0.020224,0.012947,0.002188,0.999793,0.002450,-0.020221,-0.002188,0.999914,0.012947,0.020251,-0.012900,0.999712,0.020221,-0.012947,-0.999712,0.316724,-0.009865,-0.018919,0.003484,0.008359,0.002597,346.263916,350.726715,-1.000000,0.000000,0.000000
482149608.514366,0.095261,-0.009750,-1.096817,0.020237,0.012934,0.002208,0.999792,0.002469,-0.020234,-0.002207,0.999914,0.012933,0.020264,-0.012886,0.999712,0.020234,-0.012933,-0.999712,0.207488,0.007837,-0.055937,-0.005152,-0.002096,0.002541,346.263397,350.726196,-1.000000,0.000000,0.000000
482149608.526298,-0.328110,-0.016235,-1.062622,0.020175,0.013073,0.002189,0.999794,0.002453,-0.020172,-0.002189,0.999912,0.013073,0.020203,-0.013026,0.999711,0.020172,-0.013073,-0.999711,0.224655,-0.009068,-0.033294,0.002244,-0.004342,0.003802,346.263397,350.726196,-1.000000,0.000000,0.000000
482149608.533642,-0.328110,-0.016235,-1.062622,0.020175,0.013073,0.002189,0.999794,0.002453,-0.020172,-0.002189,0.999912,0.013073,0.020203,-0.013026,0.999711,0.020172,-0.013073,-0.999711,0.224655,-0.009068,-0.033294,0.002244,-0.004342,0.003802,346.263397,350.726196,-1.000000,0.000000,0.000000
482149608.544236,-0.301666,0.003937,-1.085953,0.020132,0.013036,0.002233,0.999794,0.002495,-0.020129,-0.002233,0.999913,0.013035,0.020160,-0.012988,0.999712,0.020129,-0.013035,-0.999712,0.075132,0.003285,-0.097105,-0.000215,-0.003225,0.001330,346.263397,350.726196,-1.000000,0.000000,0.000000
482149608.554710,-0.191345,-0.021667,-1.034210,0.020192,0.012967,0.002284,0.999793,0.002545,-0.020189,-0.002284,0.999913,0.012966,0.020220,-0.012918,0.999712,0.020189,-0.012966,-0.999712,-0.348299,-0.003269,-0.062910,-0.007616,0.008279,0.002546,346.263397,350.726196,-1.000000,0.000000,0.000000
482149608.564291,0.047501,-0.018372,-1.039352,0.020192,0.012967,0.002284,0.999793,0.002545,-0.020189,-0.002284,0.999913,0.012966,0.020220,-0.012918,0.999712,0.020189,-0.012966,-0.999712,-0.348299,-0.003269,-0.062910,-0.007616,0.008279,0.002546,346.267914,350.730713,-1.000000,0.000000,0.000000
482149608.574122,0.240891,-0.011429,-1.074173,0.020228,0.012929,0.002304,0.999792,0.002565,-0.020224,-0.002303,0.999914,0.012929,0.020256,-0.012879,0.999712,0.020224,-0.012929,-0.999712,-0.321891,0.016865,-0.086241,-0.003922,-0.000922,0.003779,346.267914,350.730713,-1.000000,0.000000,0.000000
482149608.584220,0.391479,-0.005417,-1.078003,0.020243,0.012956,0.002347,0.999792,0.002609,-0.020240,-0.002347,0.999913,0.012955,0.020272,-0.012905,0.999711,0.020240,-0.012955,-0.999711,0.027260,-0.005416,-0.039641,0.005931,0.007274,0.008761,346.267914,350.730713,-1.000000,0.000000,0.000000
482149608.594056,0.334152,-0.020981,-1.049026,0.020243,0.012956,0.002347,0.999792,0.002609,-0.020240,-0.002347,0.999913,0.012955,0.020272,-0.012905,0.999711,0.020240,-0.012955,-0.999711,0.027260,-0.005416,-0.039641,0.005931,0.007274,0.008761,346.267914,350.730713,-1.000000,0.000000,0.000000
482149608.604233,0.210236,-0.007034,-1.097931,0.020257,0.012959,0.002306,0.999792,0.002568,-0.020254,-0.002306,0.999913,0.012959,0.020285,-0.012909,0.999711,0.020254,-0.012959,-0.999711,0.027247,-0.005413,-0.039642,-0.001431,0.003652,-0.003589,346.267914,350.730713,-1.000000,0.000000,0.000000
482149608.614040,0.153580,-0.024246,-1.019958,0.020233,0.012896,0.002363,0.999792,0.002624,-0.020229,-0.002363,0.999914,0.012895,0.020262,-0.012845,0.999712,0.020229,-0.012895,-0.999712,0.371250,0.007479,-0.078291,-0.005148,-0.002106,0.001309,346.268494,350.731293,-1.000000,0.000000,0.000000
482149608.623437,0.153580,-0.024246,-1.019958,0.020233,0.012896,0.002363,0.999792,0.002624,-0.020229,-0.002363,0.999914,0.012895,0.020262,-0.012845,0.999712,0.020229,-0.012895,-0.999712,0.371250,0.007479,-0.078291,-0.005148,-0.002106,0.001309,346.268494,350.731293,-1.000000,0.000000,0.000000
482149608.634034,-0.147903,0.002869,-1.098557,0.020229,0.012882,0.002376,0.999792,0.002636,-0.020226,-0.002376,0.999914,0.012882,0.020258,-0.012831,0.999712,0.020226,-0.012882,-0.999712,0.313926,-0.008099,-0.049314,0.002257,0.001401,0.000117,346.268494,350.731293,-1.000000,0.000000,0.000000
482149608.644056,-0.285522,-0.024750,-1.025070,0.020290,0.012902,0.002360,0.999791,0.002622,-0.020287,-0.002360,0.999914,0.012901,0.020319,-0.012851,0.999711,0.020287,-0.012901,-0.999711,0.133293,-0.011345,-0.020248,-0.005147,0.000203,0.001313,346.268494,350.731293,-1.000000,0.000000,0.000000
482149608.657358,-0.264801,-0.009537,-1.067062,0.020290,0.012902,0.002360,0.999791,0.002622,-0.020287,-0.002360,0.999914,0.012901,0.020319,-0.012851,0.999711,0.020287,-0.012901,-0.999711,0.133293,-0.011345,-0.020248,-0.005147,0.000203,0.001313,346.268494,350.731293,-1.000000,0.000000,0.000000
482149608.663854,-0.220551,-0.005173,-1.030487,0.020320,0.012924,0.002355,0.999790,0.002617,-0.020317,-0.002355,0.999914,0.012923,0.020349,-0.012873,0.999710,0.020317,-0.012923,-0.999710,-0.168221,0.015792,-0.098846,0.008436,0.002567,-0.003546,346.277588,350.740387,-1.000000,0.000000,0.000000
482149608.674204,0.030807,-0.002686,-1.114914,0.020313,0.012920,0.002375,0.999790,0.002637,-0.020310,-0.002375,0.999914,0.012919,0.020343,-0.012868,0.999710,0.020310,-0.012919,-0.999710,-0.305833,-0.011830,-0.025360,0.003482,-0.002034,0.002580,346.277588,350.740387,-1.000000,0.000000,0.000000
482149608.684393,0.246475,-0.016998,-1.003601,0.020276,0.012894,0.002400,0.999791,0.002661,-0.020273,-0.002400,0.999914,0.012894,0.020306,-0.012842,0.999711,0.020273,-0.012894,-0.999711,-0.285074,0.003357,-0.067351,-0.011299,-0.003346,-0.003645,346.277588,350.740387,-1.000000,0.000000,0.000000
482149608.694063,0.378006,-0.012344,-1.112411,0.020276,0.012894,0.002400,0.999791,0.002661,-0.020273,-0.002400,0.999914,0.012894,0.020306,-0.012842,0.999711,0.020273,-0.012894,-0.999711,-0.285074,0.003357,-0.067351,-0.011299,-0.003346,-0.003645,346.277588,350.740387,-1.000000,0.000000,0.000000
482149608.704128,0.316437,-0.032440,-1.029556,0.020196,0.012836,0.002367,0.999793,0.002626,-0.020193,-0.002367,0.999915,0.012835,0.020225,-0.012785,0.999714,0.020193,-0.012835,-0.999714,0.010615,0.010150,-0.115200,-0.002643,-0.009122,-0.011001,346.277588,350.740387,-1.000000,0.000000,0.000000
482149608.714242,0.197113,-0.002686,-1.080399,0.020153,0.012761,0.002327,0.999794,0.002584,-0.020150,-0.002327,0.999916,0.012760,0.020181,-0.012711,0.999716,0.020150,-0.012760,-0.999716,0.226325,-0.004238,-0.003886,-0.003898,-0.000984,-0.003608,346.277588,350.740387,-1.000000,0.000000,0.000000
482149608.725464,0.197113,-0.002686,-1.080399,0.020153,0.012761,0.002327,0.999794,0.002584,-0.020150,-0.002327,0.999916,0.012760,0.020181,-0.012711,0.999716,0.020150,-0.012760,-0.999716,0.226325,-0.004238,-0.003886,-0.003898,-0.000984,-0.003608,346.282959,350.745758,-1.000000,0.000000,0.000000
482149608.735211,-0.059235,0.008499,-1.039108,0.020090,0.012745,0.002336,0.999795,0.002591,-0.020087,-0.002335,0.999916,0.012745,0.020118,-0.012695,0.999717,0.020087,-0.012745,-0.999717,0.296350,-0.019696,-0.029839,-0.006388,0.001370,0.003771,346.282959,350.745758,-1.000000,0.000000,0.000000
482149608.743831,-0.297363,-0.008087,-1.092789,0.020120,0.012792,0.002414,0.999794,0.002671,-0.020117,-0.002414,0.999915,0.012792,0.020150,-0.012741,0.999716,0.020117,-0.012792,-0.999716,0.176996,0.010106,-0.080683,0.008393,0.006147,0.010001,346.282959,350.745758,-1.000000,0.000000,0.000000
482149608.754107,-0.472015,-0.017273,-1.039154,0.020120,0.012792,0.002414,0.999794,0.002671,-0.020117,-0.002414,0.999915,0.012792,0.020150,-0.012741,0.999716,0.020117,-0.012792,-0.999716,0.176996,0.010106,-0.080683,0.008393,0.006147,0.010001,346.282959,350.745758,-1.000000,0.000000,0.000000
482149608.763709,-0.297821,-0.000885,-1.055542,0.020079,0.012729,0.002489,0.999795,0.002744,-0.020076,-0.002488,0.999916,0.012729,0.020109,-0.012676,0.999717,0.020076,-0.012729,-0.999717,-0.079310,0.021228,-0.039391,0.002224,-0.000825,0.009962,346.282959,350.745758,-1.000000,0.000000,0.000000
482149608.774241,-0.145813,-0.011795,-1.063278,0.020109,0.012751,0.002477,0.999794,0.002733,-0.020106,-0.002477,0.999916,0.012751,0.020140,-0.012698,0.999717,0.020106,-0.012751,-0.999717,-0.317470,0.004664,-0.093072,0.002273,0.001358,-0.004807,346.294708,350.757507,-1.000000,0.000000,0.000000
482149608.784664,-0.043396,0.016037,-1.056641,0.020109,0.012751,0.002477,0.999794,0.002733,-0.020106,-0.002477,0.999916,0.012751,0.020140,-0.012698,0.999717,0.020106,-0.012751,-0.999717,-0.317470,0.004664,-0.093072,0.002273,0.001358,-0.004807,346.294708,350.757507,-1.000000,0.000000,0.000000
482149608.793799,0.192581,-0.022415,-1.075531,0.020103,0.012839,0.002598,0.999794,0.002855,-0.020100,-0.002598,0.999914,0.012839,0.020135,-0.012784,0.999716,0.020100,-0.012839,-0.999716,-0.317921,0.011954,-0.055826,0.010878,0.000338,0.003847,346.294708,350.757507,-1.000000,0.000000,0.000000
482149608.803280,0.274933,0.007980,-1.046494,0.020060,0.012844,0.002647,0.999795,0.002904,-0.020057,-0.002646,0.999914,0.012843,0.020092,-0.012788,0.999716,0.020057,-0.012843,-0.999716,-0.165870,0.001048,-0.063562,-0.003923,-0.004386,0.003773,346.294708,350.757507,-1.000000,0.000000,0.000000
482149608.815529,0.303436,-0.024323,-1.042389,0.019997,0.012917,0.002623,0.999796,0.002881,-0.019994,-0.002623,0.999913,0.012917,0.020030,-0.012862,0.999717,0.019994,-0.012917,-0.999717,0.172587,-0.009498,-0.075814,-0.001420,-0.002153,-0.007292,346.294708,350.757507,-1.000000,0.000000,0.000000
482149608.824705,0.246750,-0.011459,-1.062378,0.019997,0.012917,0.002623,0.999796,0.002881,-0.019994,-0.002623,0.999913,0.012917,0.020030,-0.012862,0.999717,0.019994,-0.012917,-0.999717,0.172587,-0.009498,-0.075814,-0.001420,-0.002153,-0.007292,346.300842,350.763641,-1.000000,0.000000,0.000000
482149608.834130,0.088364,-0.008698,-1.105667,0.020011,0.012921,0.002618,0.999796,0.002876,-0.020008,-0.002618,0.999913,0.012921,0.020043,-0.012866,0.999716,0.020008,-0.012921,-0.999716,0.254925,0.020901,-0.046777,0.001011,0.000268,0.003802,346.300842,350.763641,-1.000000,0.000000,0.000000
482149608.843534,0.088364,-0.008698,-1.105667,0.020011,0.012921,0.002618,0.999796,0.002876,-0.020008,-0.002618,0.999913,0.012921,0.020043,-0.012866,0.999716,0.020008,-0.012921,-0.999716,0.254925,0.020901,-0.046777,0.001011,0.000268,0.003802,346.300842,350.763641,-1.000000,0.000000,0.000000
482149608.853884,-0.149765,-0.007828,-1.076050,0.019992,0.012835,0.002706,0.999796,0.002962,-0.019989,-0.002705,0.999914,0.012834,0.020025,-0.012777,0.999718,0.019989,-0.012834,-0.999718,0.283447,-0.011488,-0.042671,0.002244,-0.002033,0.003804,346.300842,350.763641,-1.000000,0.000000,0.000000
482149608.865477,-0.357803,-0.020584,-1.056976,0.019994,0.012828,0.002767,0.999796,0.003022,-0.019991,-0.002766,0.999914,0.012827,0.020028,-0.012769,0.999718,0.019991,-0.012827,-0.999718,0.226759,0.001368,-0.062660,-0.007626,0.001372,0.004996,346.300842,350.763641,-1.000000,0.000000,0.000000
482149608.873878,-0.333420,-0.002213,-1.061691,0.020048,0.012794,0.002799,0.999794,0.003055,-0.020045,-0.002799,0.999914,0.012794,0.020083,-0.012735,0.999717,0.020045,-0.012794,-0.999717,-0.169810,0.004966,-0.076333,0.002257,0.000245,0.000115,346.307434,350.770233,-1.000000,0.000000,0.000000
482149608.884134,-0.208206,-0.018448,-1.047073,0.020048,0.012794,0.002799,0.999794,0.003055,-0.020045,-0.002799,0.999914,0.012794,0.020083,-0.012735,0.999717,0.020045,-0.012794,-0.999717,-0.169810,0.004966,-0.076333,0.002257,0.000245,0.000115,346.307434,350.770233,-1.000000,0.000000,0.000000
482149608.894217,-0.238678,-0.016190,-1.092361,0.020017,0.012756,0.002777,0.999795,0.003031,-0.020014,-0.002776,0.999915,0.012755,0.020051,-0.012697,0.999718,0.020014,-0.012755,-0.999718,-0.377817,-0.007829,-0.057258,-0.003899,-0.000984,-0.003608,346.307434,350.770233,-1.000000,0.000000,0.000000
482149608.904214,0.064301,-0.014740,-1.044113,0.020055,0.012783,0.002862,0.999794,0.003118,-0.020052,-0.002862,0.999914,0.012783,0.020090,-0.012723,0.999717,0.020052,-0.012783,-0.999717,-0.228258,-0.005665,-0.047356,-0.005160,-0.003229,0.005000,346.307434,350.770233,-1.000000,0.000000,0.000000
482149608.914354,0.253677,-0.006699,-1.073120,0.020055,0.012783,0.002862,0.999794,0.003118,-0.020052,-0.002862,0.999914,0.012783,0.020090,-0.012723,0.999717,0.020052,-0.012783,-0.999717,-0.228258,-0.005665,-0.047356,-0.005160,-0.003229,0.005000,346.307434,350.770233,-1.000000,0.000000,0.000000
482149608.923748,0.366837,-0.021576,-1.042923,0.020040,0.012744,0.002816,0.999795,0.003071,-0.020037,-0.002816,0.999915,0.012744,0.020075,-0.012685,0.999718,0.020037,-0.012744,-0.999718,-0.258715,-0.003446,-0.092643,-0.005124,-0.001014,-0.006076,346.315186,350.777985,-1.000000,0.000000,0.000000
482149608.934343,0.237534,0.014267,-1.105576,0.020039,0.012710,0.002812,0.999795,0.003067,-0.020036,-0.002812,0.999915,0.012710,0.020073,-0.012651,0.999718,0.020036,-0.012710,-0.999718,0.044265,-0.002030,-0.044395,0.001023,0.001392,0.000111,346.315186,350.777985,-1.000000,0.000000,0.000000
482149608.945401,0.237534,0.014267,-1.105576,0.020039,0.012710,0.002812,0.999795,0.003067,-0.020036,-0.002812,0.999915,0.012710,0.020073,-0.012651,0.999718,0.020036,-0.012710,-0.999718,0.044265,-0.002030,-0.044395,0.001023,0.001392,0.000111,346.315186,350.777985,-1.000000,0.000000,0.000000
482149608.953638,0.185272,-0.028687,-0.998184,0.020013,0.012769,0.002848,0.999795,0.003103,-0.020010,-0.002848,0.999914,0.012768,0.020048,-0.012709,0.999718,0.020010,-0.012768,-0.999718,0.233667,0.006070,-0.073402,0.007189,-0.003184,0.000132,346.315186,350.777985,-1.000000,0.000000,0.000000
482149608.964188,-0.156006,0.009033,-1.092728,0.020074,0.012837,0.002903,0.999794,0.003160,-0.020071,-0.002903,0.999913,0.012837,0.020110,-0.012776,0.999716,0.020071,-0.012837,-0.999716,0.217463,0.027104,-0.105859,0.012104,0.003832,0.006320,346.315186,350.777985,-1.000000,0.000000,0.000000
482149608.977425,-0.381638,-0.010376,-1.084595,0.020110,0.012835,0.002910,0.999793,0.003168,-0.020107,-0.002910,0.999913,0.012835,0.020146,-0.012774,0.999715,0.020107,-0.012835,-0.999715,0.165165,-0.015851,0.001531,-0.002671,0.004819,-0.001132,346.323364,350.786163,-1.000000,0.000000,0.000000
482149608.984050,-0.381638,-0.010376,-1.084595,0.020110,0.012835,0.002910,0.999793,0.003168,-0.020107,-0.002910,0.999913,0.012835,0.020146,-0.012774,0.999715,0.020107,-0.012835,-0.999715,0.165165,-0.015851,0.001531,-0.002671,0.004819,-0.001132,346.323364,350.786163,-1.000000,0.000000,0.000000
482149608.994789,-0.281448,-0.020096,-1.059341,0.020087,0.012982,0.002964,0.999793,0.003224,-0.020084,-0.002964,0.999911,0.012982,0.020124,-0.012920,0.999714,0.020084,-0.012982,-0.999714,-0.308704,-0.008686,-0.021465,0.001026,-0.004393,-0.001130,346.323364,350.786163,-1.000000,0.000000,0.000000
482149609.005358,0.029938,-0.009552,-1.109055,0.020087,0.012982,0.002964,0.999793,0.003224,-0.020084,-0.002964,0.999911,0.012982,0.020124,-0.012920,0.999714,0.020084,-0.012982,-0.999714,-0.308704,-0.008686,-0.021465,0.001026,-0.004393,-0.001130,346.323364,350.786163,-1.000000,0.000000,0.000000
482149609.014047,0.269348,-0.018448,-1.006378,0.020050,0.012992,0.002977,0.999794,0.003237,-0.020047,-0.002977,0.999911,0.012992,0.020087,-0.012930,0.999715,0.020047,-0.012992,-0.999715,-0.401684,0.002616,-0.084880,0.004722,-0.002047,0.000122,346.323364,350.786163,-1.000000,0.000000,0.000000
482149609.024050,0.397705,-0.009689,-1.101471,0.020049,0.013019,0.003026,0.999794,0.003287,-0.020046,-0.003026,0.999911,0.013019,0.020087,-0.012955,0.999714,0.020046,-0.013019,-0.999714,-0.301494,-0.007077,-0.059627,0.004707,0.001459,0.005052,346.323364,350.786163,-1.000000,0.000000,0.000000
482149609.036023,0.340988,-0.022964,-1.028412,0.020091,0.013107,0.003008,0.999793,0.003271,-0.020088,-0.003008,0.999910,0.013106,0.020129,-0.013043,0.999712,0.020088,-0.013106,-0.999712,0.009850,0.003554,-0.109342,0.010878,0.003802,0.003852,346.333588,350.796387,-1.000000,0.000000,0.000000
482149609.045999,0.340988,-0.022964,-1.028412,0.020091,0.013107,0.003008,0.999793,0.003271,-0.020088,-0.003008,0.999910,0.013106,0.020129,-0.013043,0.999712,0.020088,-0.013106,-0.999712,0.009850,0.003554,-0.109342,0.010878,0.003802,0.003852,346.333588,350.796387,-1.000000,0.000000,0.000000
482149609.053873,0.226761,-0.002182,-1.070374,0.020118,0.013170,0.003069,0.999792,0.003333,-0.020115,-0.003069,0.999909,0.013169,0.020157,-0.013105,0.999711,0.020115,-0.013169,-0.999711,0.377590,0.003480,-0.101760,0.017069,0.003783,-0.003506,346.333588,350.796387,-1.000000,0.000000,0.000000
482149609.068257,-0.040146,-0.004654,-1.025253,0.020086,0.013138,0.003077,0.999793,0.003340,-0.020083,-0.003076,0.999909,0.013137,0.020125,-0.013073,0.999712,0.020083,-0.013137,-0.999712,0.320905,-0.009827,-0.028700,-0.007615,-0.003279,0.001295,346.333588,350.796387,-1.000000,0.000000,0.000000
482149609.073529,-0.040146,-0.004654,-1.025253,0.020086,0.013138,0.003077,0.999793,0.003340,-0.020083,-0.003076,0.999909,0.013137,0.020125,-0.013073,0.999712,0.020083,-0.013137,-0.999712,0.320905,-0.009827,-0.028700,-0.007615,-0.003279,0.001295,346.333588,350.796387,-1.000000,0.000000,0.000000
482149609.084306,-0.305298,-0.008911,-1.089920,0.020012,0.013195,0.003131,0.999794,0.003395,-0.020009,-0.003131,0.999908,0.013194,0.020052,-0.013129,0.999713,0.020009,-0.013194,-0.999713,0.206752,0.011012,-0.070661,0.003478,0.002595,0.003817,346.336670,350.799469,-1.000000,0.000000,0.000000
482149609.094192,-0.308456,-0.002838,-1.084061,0.020013,0.013127,0.003212,0.999794,0.003474,-0.020010,-0.003211,0.999909,0.013127,0.020054,-0.013060,0.999714,0.020010,-0.013127,-0.999714,0.206979,0.002965,-0.074566,-0.006442,0.001371,0.006279,346.336670,350.799469,-1.000000,0.000000,0.000000
482149609.104146,-0.120010,-0.021072,-1.035645,0.020013,0.013127,0.003212,0.999794,0.003474,-0.020010,-0.003211,0.999909,0.013127,0.020054,-0.013060,0.999714,0.020010,-0.013127,-0.999714,0.206979,0.002965,-0.074566,-0.006442,0.001371,0.006279,346.336670,350.799469,-1.000000,0.000000,0.000000
482149609.113996,-0.069565,-0.004440,-1.074463,0.020000,0.013141,0.003256,0.999794,0.003519,-0.019997,-0.003256,0.999908,0.013141,0.020042,-0.013073,0.999714,0.019997,-0.013141,-0.999714,-0.325295,0.004230,-0.090206,-0.005177,-0.003323,-0.003571,346.336670,350.799469,-1.000000,0.000000,0.000000
482149609.124775,0.164062,-0.025955,-1.093384,0.020002,0.013151,0.003288,0.999794,0.003550,-0.019999,-0.003287,0.999908,0.013151,0.020044,-0.013082,0.999713,0.019999,-0.013151,-0.999713,-0.328456,0.010313,-0.084347,-0.000271,-0.000905,0.005072,346.336670,350.799469,-1.000000,0.000000,0.000000
482149609.134040,0.273880,0.009018,-1.042572,0.020002,0.013151,0.003288,0.999794,0.003550,-0.019999,-0.003287,0.999908,0.013151,0.020044,-0.013082,0.999713,0.019999,-0.013151,-0.999713,-0.328456,0.010313,-0.084347,-0.000271,-0.000905,0.005072,346.345459,350.808258,-1.000000,0.000000,0.000000
482149609.144025,0.301575,-0.023422,-1.062012,0.019939,0.013159,0.003320,0.999795,0.003582,-0.019936,-0.003320,0.999908,0.013159,0.019981,-0.013090,0.999715,0.019936,-0.013159,-0.999715,-0.089501,0.008718,-0.074748,0.004652,-0.005469,0.007550,346.345459,350.808258,-1.000000,0.000000,0.000000
482149609.154245,0.255386,-0.002609,-1.050552,0.019913,0.013175,0.003351,0.999795,0.003613,-0.019910,-0.003351,0.999908,0.013175,0.019956,-0.013105,0.999715,0.019910,-0.013175,-0.999715,0.144153,-0.012781,-0.093669,0.000978,-0.000938,0.000154,346.345459,350.808258,-1.000000,0.000000,0.000000
482149609.163727,0.255386,-0.002609,-1.050552,0.019913,0.013175,0.003351,0.999795,0.003613,-0.019910,-0.003351,0.999908,0.013175,0.019956,-0.013105,0.999715,0.019910,-0.013175,-0.999715,0.144153,-0.012781,-0.093669,0.000978,-0.000938,0.000154,346.345459,350.808258,-1.000000,0.000000,0.000000
482149609.174046,0.284790,-0.023178,-1.071930,0.019911,0.013127,0.003295,0.999795,0.003556,-0.019908,-0.003295,0.999908,0.013127,0.019953,-0.013058,0.999716,0.019908,-0.013127,-0.999716,0.253972,0.022145,-0.042856,-0.005193,-0.002127,0.001355,346.345459,350.808258,-1.000000,0.000000,0.000000
482149609.183523,0.085068,-0.006363,-1.067474,0.019935,0.013029,0.003316,0.999795,0.003575,-0.019932,-0.003316,0.999910,0.013029,0.019977,-0.012960,0.999716,0.019932,-0.013029,-0.999716,0.281643,-0.010394,-0.062295,-0.007650,0.003608,-0.001109,346.356995,350.819794,-1.000000,0.000000,0.000000
482149609.195243,-0.423386,-0.012421,-1.062332,0.019935,0.013029,0.003316,0.999795,0.003575,-0.019932,-0.003316,0.999910,0.013029,0.019977,-0.012960,0.999716,0.019932,-0.013029,-0.999716,0.281643,-0.010394,-0.062295,-0.007650,0.003608,-0.001109,346.356995,350.819794,-1.000000,0.000000,0.000000
482149609.204198,-0.333588,0.000839,-1.048935,0.019905,0.012969,0.003278,0.999796,0.003536,-0.019902,-0.003278,0.999911,0.012969,0.019946,-0.012901,0.999718,0.019902,-0.012969,-0.999718,0.264888,-0.010209,-0.072212,-0.012576,0.001243,-0.003598,346.356995,350.819794,-1.000000,0.000000,0.000000
482149609.214134,-0.213715,-0.030426,-1.068680,0.019907,0.013022,0.003339,0.999795,0.003597,-0.019904,-0.003338,0.999910,0.013021,0.019949,-0.012952,0.999717,0.019904,-0.013021,-0.999717,0.065164,0.006659,-0.067757,0.009583,0.001505,0.008814,346.356995,350.819794,-1.000000,0.000000,0.000000
482149609.224688,-0.246521,-0.018082,-1.099289,0.019956,0.012981,0.003336,0.999794,0.003595,-0.019953,-0.003336,0.999910,0.012981,0.019998,-0.012911,0.999717,0.019953,-0.012981,-0.999717,-0.353540,0.013820,-0.049218,0.005903,0.000272,0.002640,346.356995,350.819794,-1.000000,0.000000,0.000000
482149609.234129,0.074036,-0.013794,-1.022476,0.019956,0.012981,0.003336,0.999794,0.003595,-0.019953,-0.003336,0.999910,0.012981,0.019998,-0.012911,0.999717,0.019953,-0.012981,-0.999717,-0.353540,0.013820,-0.049218,0.005903,0.000272,0.002640,346.356995,350.819794,-1.000000,0.000000,0.000000
482149609.244381,0.289520,-0.006561,-1.096375,0.019947,0.013038,0.003325,0.999795,0.003584,-0.019944,-0.003325,0.999909,0.013038,0.019989,-0.012969,0.999716,0.019944,-0.013038,-0.999716,-0.233659,-0.017388,-0.068964,-0.000260,-0.003246,0.001375,346.373779,350.836578,-1.000000,0.000000,0.000000
482149609.255832,0.418518,-0.025589,-1.047424,0.019991,0.013123,0.003297,0.999794,0.003558,-0.019988,-0.003296,0.999908,0.013122,0.020033,-0.013054,0.999714,0.019988,-0.013122,-0.999714,-0.266509,-0.004959,-0.099575,0.017012,0.003794,0.000234,346.373779,350.836578,-1.000000,0.000000,0.000000
482149609.263436,0.418518,-0.025589,-1.047424,0.019991,0.013123,0.003297,0.999794,0.003558,-0.019988,-0.003296,0.999908,0.013122,0.020033,-0.013054,0.999714,0.019988,-0.013122,-0.999714,-0.266509,-0.004959,-0.099575,0.017012,0.003794,0.000234,346.373779,350.836578,-1.000000,0.000000,0.000000
482149609.274107,0.279221,0.002747,-1.072937,0.019993,0.013133,0.003328,0.999794,0.003590,-0.019990,-0.003328,0.999908,0.013132,0.020035,-0.013063,0.999714,0.019990,-0.013132,-0.999714,0.054046,-0.000662,-0.022762,-0.001501,-0.000925,0.003835,346.373779,350.836578,-1.000000,0.000000,0.000000
482149609.283930,0.190475,-0.022247,-1.057907,0.020019,0.013129,0.003391,0.999793,0.003653,-0.020016,-0.003390,0.999908,0.013129,0.020062,-0.013058,0.999713,0.020016,-0.013129,-0.999713,0.398502,-0.012460,-0.047711,-0.006429,0.004803,0.002591,346.373779,350.836578,-1.000000,0.000000,0.000000
482149609.294286,-0.189606,0.004715,-1.091995,0.020019,0.013129,0.003391,0.999793,0.003653,-0.020016,-0.003390,0.999908,0.013129,0.020062,-0.013058,0.999713,0.020016,-0.013129,-0.999713,0.398502,-0.012460,-0.047711,-0.006429,0.004803,0.002591,346.387543,350.850342,-1.000000,0.000000,0.000000
482149609.303233,-0.318481,-0.018082,-1.016510,0.020033,0.013168,0.003392,0.999793,0.003655,-0.020030,-0.003391,0.999908,0.013168,0.020076,-0.013097,0.999713,0.020030,-0.013168,-0.999713,0.259191,0.015915,-0.073224,0.010852,-0.000890,-0.002264,346.387543,350.850342,-1.000000,0.000000,0.000000
482149609.317547,-0.385727,-0.001450,-1.099319,0.020037,0.013151,0.003371,0.999793,0.003634,-0.020034,-0.003371,0.999908,0.013151,0.020080,-0.013080,0.999713,0.020034,-0.013151,-0.999713,-0.209639,0.017866,-0.092282,-0.007648,-0.003331,-0.002352,346.387543,350.850342,-1.000000,0.000000,0.000000
482149609.326312,-0.317505,-0.008408,-1.049805,0.020037,0.013151,0.003371,0.999793,0.003634,-0.020034,-0.003371,0.999908,0.013151,0.020080,-0.013080,0.999713,0.020034,-0.013151,-0.999713,-0.209639,0.017866,-0.092282,-0.007648,-0.003331,-0.002352,346.387543,350.850342,-1.000000,0.000000,0.000000
482149609.333993,-0.207443,-0.004654,-1.063721,0.020056,0.013186,0.003462,0.999792,0.003725,-0.020052,-0.003461,0.999907,0.013186,0.020100,-0.013114,0.999712,0.020052,-0.013186,-0.999712,-0.209658,0.017901,-0.092283,0.002184,0.003762,0.008783,346.387543,350.850342,-1.000000,0.000000,0.000000
482149609.343977,0.080002,-0.013947,-1.027344,0.020065,0.013229,0.003464,0.999792,0.003729,-0.020062,-0.003464,0.999906,0.013229,0.020110,-0.013157,0.999711,0.020062,-0.013229,-0.999711,-0.405789,0.011779,-0.099608,0.003448,-0.003241,-0.001070,346.400299,350.863098,-1.000000,0.000000,0.000000
482149609.355795,0.346054,-0.007660,-1.095978,0.020065,0.013229,0.003464,0.999792,0.003729,-0.020062,-0.003464,0.999906,0.013229,0.020110,-0.013157,0.999711,0.020062,-0.013229,-0.999711,-0.405789,0.011779,-0.099608,0.003448,-0.003241,-0.001070,346.400299,350.863098,-1.000000,0.000000,0.000000
