Timestamp,Accel_X,Accel_Y,Accel_Z,Roll,Pitch,Yaw,RM11,RM12,RM13,RM21,RM22,RM23,RM31,RM32,RM33,GravAcc_X,GravAcc_Y,GravAcc_Z,UserAcc_X,UserAcc_Y,UserAcc_Z,RotRate_X,RotRate_Y,RotRate_Z,MagHeading,TrueHeading,HeadingAccuracy,Course,Speed
482149601.794502,0.040558,-0.003571,-1.024261,0.038163,0.005762,0.004209,0.999262,0.004426,-0.038154,-0.004209,0.999975,0.005762,0.038178,-0.005597,0.999255,0.038154,-0.005762,-0.999255,-0.000617,-0.000814,-0.025128,-0.002283,-0.008171,-0.002519,22.997280,27.460064,-1.000000,-1.000000,-1.000000
482149601.804134,0.040466,-0.005539,-1.023270,0.038163,0.005762,0.004209,0.999262,0.004426,-0.038154,-0.004209,0.999975,0.005762,0.038178,-0.005597,0.999255,0.038154,-0.005762,-0.999255,-0.000617,-0.000814,-0.025128,-0.002283,-0.008171,-0.002519,22.997280,27.460064,-1.000000,-1.000000,-1.000000
482149601.813788,0.035553,-0.001617,-1.021652,0.038163,0.005762,0.004209,0.999262,0.004426,-0.038154,-0.004209,0.999975,0.005762,0.038178,-0.005597,0.999255,0.038154,-0.005762,-0.999255,-0.000617,-0.000814,-0.025128,-0.002283,-0.008171,-0.002519,22.997280,27.460064,-1.000000,-1.000000,-1.000000
482149601.823621,0.037460,-0.005569,-1.022461,0.038163,0.005762,0.004209,0.999262,0.004426,-0.038154,-0.004209,0.999975,0.005762,0.038178,-0.005597,0.999255,0.038154,-0.005762,-0.999255,-0.000617,-0.000814,-0.025128,-0.002283,-0.008171,-0.002519,22.997280,27.460064,-1.000000,-1.000000,-1.000000
482149601.834117,0.035431,-0.006577,-1.021591,0.038163,0.005762,0.004209,0.999262,0.004426,-0.038154,-0.004209,0.999975,0.005762,0.038178,-0.005597,0.999255,0.038154,-0.005762,-0.999255,-0.000617,-0.000814,-0.025128,-0.002283,-0.008171,-0.002519,22.997280,27.460064,-1.000000,-1.000000,-1.000000
482149601.844053,0.037384,-0.006546,-1.021469,0.038163,0.005762,0.004209,0.999262,0.004426,-0.038154,-0.004209,0.999975,0.005762,0.038178,-0.005597,0.999255,0.038154,-0.005762,-0.999255,-0.000617,-0.000814,-0.025128,-0.002283,-0.008171,-0.002519,22.997280,27.460064,-1.000000,-1.000000,-1.000000
482149601.853225,0.033966,-0.011459,-1.014847,0.038163,0.005762,0.004209,0.999262,0.004426,-0.038154,-0.004209,0.999975,0.005762,0.038178,-0.005597,0.999255,0.038154,-0.005762,-0.999255,-0.000617,-0.000814,-0.025128,-0.002283,-0.008171,-0.002519,22.997280,27.460064,-1.000000,-1.000000,-1.000000
482149601.863191,0.037338,-0.006531,-1.020508,0.038163,0.005762,0.004209,0.999262,0.004426,-0.038154,-0.004209,0.999975,0.005762,0.038178,-0.005597,0.999255,0.038154,-0.005762,-0.999255,-0.000617,-0.000814,-0.025128,-0.002283,-0.008171,-0.002519,22.997280,27.460064,-1.000000,-1.000000,-1.000000
482149601.873142,0.039490,-0.005554,-1.023315,0.038163,0.005762,0.004209,0.999262,0.004426,-0.038154,-0.004209,0.999975,0.005762,0.038178,-0.005597,0.999255,0.038154,-0.005762,-0.999255,-0.000617,-0.000814,-0.025128,-0.002283,-0.008171,-0.002519,22.997280,27.460064,-1.000000,-1.000000,-1.000000
482149601.884044,0.038330,-0.006531,-1.020447,0.038163,0.005762,0.004209,0.999262,0.004426,-0.038154,-0.004209,0.999975,0.005762,0.038178,-0.005597,0.999255,0.038154,-0.005762,-0.999255,-0.000617,-0.000814,-0.025128,-0.002283,-0.008171,-0.002519,22.997280,27.460064,-1.000000,-1.000000,-1.000000
482149601.893502,0.037491,-0.002579,-1.021515,0.038163,0.005762,0.004209,0.999262,0.004426,-0.038154,-0.004209,0.999975,0.005762,0.038178,-0.005597,0.999255,0.038154,-0.005762,-0.999255,-0.000617,-0.000814,-0.025128,-0.002283,-0.008171,-0.002519,22.997280,27.460064,-1.000000,-1.000000,-1.000000
482149601.903853,0.041306,-0.006500,-1.021240,0.038163,0.005762,0.004209,0.999262,0.004426,-0.038154,-0.004209,0.999975,0.005762,0.038178,-0.005597,0.999255,0.038154,-0.005762,-0.999255,-0.000617,-0.000814,-0.025128,-0.002283,-0.008171,-0.002519,22.997280,27.460064,-1.000000,-1.000000,-1.000000
482149601.914085,0.041306,-0.006500,-1.021240,0.038163,0.005762,0.004209,0.999262,0.004426,-0.038154,-0.004209,0.999975,0.005762,0.038178,-0.005597,0.999255,0.038154,-0.005762,-0.999255,-0.000617,-0.000814,-0.025128,-0.002283,-0.008171,-0.002519,22.997280,27.460064,-1.000000,-1.000000,-1.000000
482149601.923584,0.044281,-0.003479,-1.020142,0.038163,0.005762,0.004209,0.999262,0.004426,-0.038154,-0.004209,0.999975,0.005762,0.038178,-0.005597,0.999255,0.038154,-0.005762,-0.999255,-0.000617,-0.000814,-0.025128,-0.002283,-0.008171,-0.002519,22.997280,27.460064,-1.000000,-1.000000,-1.000000
482149601.934246,0.045593,-0.010498,-1.029663,0.038163,0.005762,0.004209,0.999262,0.004426,-0.038154,-0.004209,0.999975,0.005762,0.038178,-0.005597,0.999255,0.038154,-0.005762,-0.999255,-0.000617,-0.000814,-0.025128,-0.002283,-0.008171,-0.002519,22.997280,27.460064,-1.000000,-1.000000,-1.000000
482149601.944044,0.039276,-0.003525,-1.018494,0.038163,0.005762,0.004209,0.999262,0.004426,-0.038154,-0.004209,0.999975,0.005762,0.038178,-0.005597,0.999255,0.038154,-0.005762,-0.999255,-0.000617,-0.000814,-0.025128,-0.002283,-0.008171,-0.002519,22.997280,27.460064,-1.000000,-1.000000,-1.000000
482149601.954083,0.040436,-0.006531,-1.023254,0.038163,0.005762,0.004209,0.999262,0.004426,-0.038154,-0.004209,0.999975,0.005762,0.038178,-0.005597,0.999255,0.038154,-0.005762,-0.999255,-0.000617,-0.000814,-0.025128,-0.002283,-0.008171,-0.002519,22.997280,27.460064,-1.000000,-1.000000,-1.000000
482149601.964278,0.048141,-0.005402,-1.019882,0.038163,0.005762,0.004209,0.999262,0.004426,-0.038154,-0.004209,0.999975,0.005762,0.038178,-0.005597,0.999255,0.038154,-0.005762,-0.999255,-0.000617,-0.000814,-0.025128,-0.002283,-0.008171,-0.002519,22.997280,27.460064,-1.000000,-1.000000,-1.000000
482149601.974107,0.044449,-0.004517,-1.024002,0.038163,0.005762,0.004209,0.999262,0.004426,-0.038154,-0.004209,0.999975,0.005762,0.038178,-0.005597,0.999255,0.038154,-0.005762,-0.999255,-0.000617,-0.000814,-0.025128,-0.002283,-0.008171,-0.002519,22.997280,27.460064,-1.000000,-1.000000,-1.000000
482149601.984088,0.037689,-0.006607,-1.027283,0.038163,0.005762,0.004209,0.999262,0.004426,-0.038154,-0.004209,0.999975,0.005762,0.038178,-0.005597,0.999255,0.038154,-0.005762,-0.999255,-0.000617,-0.000814,-0.025128,-0.002283,-0.008171,-0.002519,22.997280,27.460064,-1.000000,-1.000000,-1.000000
482149601.994037,0.038147,-0.003510,-1.015640,0.038163,0.005762,0.004209,0.999262,0.004426,-0.038154,-0.004209,0.999975,0.005762,0.038178,-0.005597,0.999255,0.038154,-0.005762,-0.999255,-0.000617,-0.000814,-0.025128,-0.002283,-0.008171,-0.002519,22.997280,27.460064,-1.000000,-1.000000,-1.000000
482149602.004148,0.035019,-0.004501,-1.012924,0.038163,0.005762,0.004209,0.999262,0.004426,-0.038154,-0.004209,0.999975,0.005762,0.038178,-0.005597,0.999255,0.038154,-0.005762,-0.999255,-0.000617,-0.000814,-0.025128,-0.002283,-0.008171,-0.002519,22.997280,27.460064,-1.000000,-1.000000,-1.000000
482149602.014034,0.044754,-0.000595,-1.027908,0.038163,0.005762,0.004209,0.999262,0.004426,-0.038154,-0.004209,0.999975,0.005762,0.038178,-0.005597,0.999255,0.038154,-0.005762,-0.999255,-0.000617,-0.000814,-0.025128,-0.002283,-0.008171,-0.002519,22.997280,27.460064,-1.000000,-1.000000,-1.000000
482149602.024031,0.035629,-0.006622,-1.025482,0.038163,0.005762,0.004209,0.999262,0.004426,-0.038154,-0.004209,0.999975,0.005762,0.038178,-0.005597,0.999255,0.038154,-0.005762,-0.999255,-0.000617,-0.000814,-0.025128,-0.002283,-0.008171,-0.002519,22.997280,27.460064,-1.000000,-1.000000,-1.000000
482149602.034012,0.041046,-0.006454,-1.016403,0.038163,0.005762,0.004209,0.999262,0.004426,-0.038154,-0.004209,0.999975,0.005762,0.038178,-0.005597,0.999255,0.038154,-0.005762,-0.999255,-0.000617,-0.000814,-0.025128,-0.002283,-0.008171,-0.002519,22.997280,27.460064,-1.000000,-1.000000,-1.000000
482149602.044129,0.041046,-0.006454,-1.016403,0.038163,0.005762,0.004209,0.999262,0.004426,-0.038154,-0.004209,0.999975,0.005762,0.038178,-0.005597,0.999255,0.038154,-0.005762,-0.999255,-0.000617,-0.000814,-0.025128,-0.002283,-0.008171,-0.002519,22.997280,27.460064,-1.000000,-1.000000,-1.000000
482149602.054144,0.037903,-0.008636,-1.032104,0.038163,0.005762,0.004209,0.999262,0.004426,-0.038154,-0.004209,0.999975,0.005762,0.038178,-0.005597,0.999255,0.038154,-0.005762,-0.999255,-0.000617,-0.000814,-0.025128,-0.002283,-0.008171,-0.002519,22.997280,27.460064,-1.000000,-1.000000,-1.000000
482149602.063145,0.043427,-0.004517,-1.023102,0.038163,0.005762,0.004209,0.999262,0.004426,-0.038154,-0.004209,0.999975,0.005762,0.038178,-0.005597,0.999255,0.038154,-0.005762,-0.999255,-0.000617,-0.000814,-0.025128,-0.002283,-0.008171,-0.002519,22.997280,27.460064,-1.000000,-1.000000,-1.000000
482149602.074107,0.046127,-0.003433,-1.018097,0.038163,0.005762,0.004209,0.999262,0.004426,-0.038154,-0.004209,0.999975,0.005762,0.038178,-0.005597,0.999255,0.038154,-0.005762,-0.999255,-0.000617,-0.000814,-0.025128,-0.002283,-0.008171,-0.002519,22.997280,27.460064,-1.000000,-1.000000,-1.000000
482149602.084073,0.045944,-0.000626,-1.031723,0.038163,0.005762,0.004209,0.999262,0.004426,-0.038154,-0.004209,0.999975,0.005762,0.038178,-0.005597,0.999255,0.038154,-0.005762,-0.999255,-0.000617,-0.000814,-0.025128,-0.002283,-0.008171,-0.002519,22.997280,27.460064,-1.000000,-1.000000,-1.000000
482149602.093162,0.040787,-0.004608,-1.029083,0.038163,0.005762,0.004209,0.999262,0.004426,-0.038154,-0.004209,0.999975,0.005762,0.038178,-0.005597,0.999255,0.038154,-0.005762,-0.999255,-0.000617,-0.000814,-0.025128,-0.002283,-0.008171,-0.002519,22.997280,27.460064,-1.000000,-1.000000,-1.000000
482149602.104056,0.044083,-0.011383,-1.020050,0.038163,0.005762,0.004209,0.999262,0.004426,-0.038154,-0.004209,0.999975,0.005762,0.038178,-0.005597,0.999255,0.038154,-0.005762,-0.999255,-0.000617,-0.000814,-0.025128,-0.002283,-0.008171,-0.002519,22.997280,27.460064,-1.000000,-1.000000,-1.000000
482149602.114153,0.036758,-0.003632,-1.026428,0.038163,0.005762,0.004209,0.999262,0.004426,-0.038154,-0.004209,0.999975,0.005762,0.038178,-0.005597,0.999255,0.038154,-0.005762,-0.999255,-0.000617,-0.000814,-0.025128,-0.002283,-0.008171,-0.002519,22.997280,27.460064,-1.000000,-1.000000,-1.000000
482149602.124084,0.049683,-0.009293,-1.013916,0.038163,0.005762,0.004209,0.999262,0.004426,-0.038154,-0.004209,0.999975,0.005762,0.038178,-0.005597,0.999255,0.038154,-0.005762,-0.999255,-0.000617,-0.000814,-0.025128,-0.002283,-0.008171,-0.002519,22.997280,27.460064,-1.000000,-1.000000,-1.000000
482149602.134050,0.038208,-0.011459,-1.020401,0.038163,0.005762,0.004209,0.999262,0.004426,-0.038154,-0.004209,0.999975,0.005762,0.038178,-0.005597,0.999255,0.038154,-0.005762,-0.999255,-0.000617,-0.000814,-0.025128,-0.002283,-0.008171,-0.002519,22.997280,27.460064,-1.000000,-1.000000,-1.000000
482149602.144098,0.039825,-0.010590,-1.031952,0.038163,0.005762,0.004209,0.999262,0.004426,-0.038154,-0.004209,0.999975,0.005762,0.038178,-0.005597,0.999255,0.038154,-0.005762,-0.999255,-0.000617,-0.000814,-0.025128,-0.002283,-0.008171,-0.002519,22.997280,27.460064,-1.000000,-1.000000,-1.000000
482149602.154166,0.039825,-0.010590,-1.031952,0.038163,0.005762,0.004209,0.999262,0.004426,-0.038154,-0.004209,0.999975,0.005762,0.038178,-0.005597,0.999255,0.038154,-0.005762,-0.999255,-0.000617,-0.000814,-0.025128,-0.002283,-0.008171,-0.002519,22.997280,27.460064,-1.000000,-1.000000,-1.000000
482149602.163376,0.035263,-0.004547,-1.017746,0.038163,0.005762,0.004209,0.999262,0.004426,-0.038154,-0.004209,0.999975,0.005762,0.038178,-0.005597,0.999255,0.038154,-0.005762,-0.999255,-0.000617,-0.000814,-0.025128,-0.002283,-0.008171,-0.002519,22.997280,27.460064,-1.000000,-1.000000,-1.000000
482149602.174067,0.039047,-0.010437,-1.017426,0.038163,0.005762,0.004209,0.999262,0.004426,-0.038154,-0.004209,0.999975,0.005762,0.038178,-0.005597,0.999255,0.038154,-0.005762,-0.999255,-0.000617,-0.000814,-0.025128,-0.002283,-0.008171,-0.002519,22.997280,27.460064,-1.000000,-1.000000,-1.000000
482149602.184113,0.034988,-0.003708,-1.030411,0.038163,0.005762,0.004209,0.999262,0.004426,-0.038154,-0.004209,0.999975,0.005762,0.038178,-0.005597,0.999255,0.038154,-0.005762,-0.999255,-0.000617,-0.000814,-0.025128,-0.002283,-0.008171,-0.002519,22.997280,27.460064,-1.000000,-1.000000,-1.000000
482149602.194279,0.042038,-0.007629,-1.035782,0.038163,0.005762,0.004209,0.999262,0.004426,-0.038154,-0.004209,0.999975,0.005762,0.038178,-0.005597,0.999255,0.038154,-0.005762,-0.999255,-0.000617,-0.000814,-0.025128,-0.002283,-0.008171,-0.002519,22.997280,27.460064,-1.000000,-1.000000,-1.000000
482149602.204307,0.046112,-0.008408,-1.019974,0.038163,0.005762,0.004209,0.999262,0.004426,-0.038154,-0.004209,0.999975,0.005762,0.038178,-0.005597,0.999255,0.038154,-0.005762,-0.999255,-0.000617,-0.000814,-0.025128,-0.002283,-0.008171,-0.002519,22.997280,27.460064,-1.000000,-1.000000,-1.000000
482149602.213741,0.035294,-0.001572,-1.016815,0.038163,0.005762,0.004209,0.999262,0.004426,-0.038154,-0.004209,0.999975,0.005762,0.038178,-0.005597,0.999255,0.038154,-0.005762,-0.999255,-0.000617,-0.000814,-0.025128,-0.002283,-0.008171,-0.002519,22.997280,27.460064,-1.000000,-1.000000,-1.000000
482149602.224058,0.034805,-0.000702,-1.025620,0.038163,0.005762,0.004209,0.999262,0.004426,-0.038154,-0.004209,0.999975,0.005762,0.038178,-0.005597,0.999255,0.038154,-0.005762,-0.999255,-0.000617,-0.000814,-0.025128,-0.002283,-0.008171,-0.002519,22.997280,27.460064,-1.000000,-1.000000,-1.000000
482149602.234049,0.024643,-0.006714,-1.022232,0.038163,0.005762,0.004209,0.999262,0.004426,-0.038154,-0.004209,0.999975,0.005762,0.038178,-0.005597,0.999255,0.038154,-0.005762,-0.999255,-0.000617,-0.000814,-0.025128,-0.002283,-0.008171,-0.002519,22.997280,27.460064,-1.000000,-1.000000,-1.000000
482149602.243500,0.029953,-0.002747,-1.027802,0.038163,0.005762,0.004209,0.999262,0.004426,-0.038154,-0.004209,0.999975,0.005762,0.038178,-0.005597,0.999255,0.038154,-0.005762,-0.999255,-0.000617,-0.000814,-0.025128,-0.002283,-0.008171,-0.002519,22.997280,27.460064,-1.000000,-1.000000,-1.000000
482149602.253712,0.029953,-0.002747,-1.027802,0.038163,0.005762,0.004209,0.999262,0.004426,-0.038154,-0.004209,0.999975,0.005762,0.038178,-0.005597,0.999255,0.038154,-0.005762,-0.999255,-0.000617,-0.000814,-0.025128,-0.002283,-0.008171,-0.002519,22.997280,27.460064,-1.000000,-1.000000,-1.000000
482149602.264145,0.044876,-0.008377,-1.015167,0.038163,0.005762,0.004209,0.999262,0.004426,-0.038154,-0.004209,0.999975,0.005762,0.038178,-0.005597,0.999255,0.038154,-0.005762,-0.999255,-0.000617,-0.000814,-0.025128,-0.002283,-0.008171,-0.002519,22.997280,27.460064,-1.000000,-1.000000,-1.000000
482149602.273994,0.035599,-0.007599,-1.025482,0.038163,0.005762,0.004209,0.999262,0.004426,-0.038154,-0.004209,0.999975,0.005762,0.038178,-0.005597,0.999255,0.038154,-0.005762,-0.999255,-0.000617,-0.000814,-0.025128,-0.002283,-0.008171,-0.002519,22.997280,27.460064,-1.000000,-1.000000,-1.000000
482149602.283305,0.038864,-0.009613,-1.032028,0.038163,0.005762,0.004209,0.999262,0.004426,-0.038154,-0.004209,0.999975,0.005762,0.038178,-0.005597,0.999255,0.038154,-0.005762,-0.999255,-0.000617,-0.000814,-0.025128,-0.002283,-0.008171,-0.002519,22.997280,27.460064,-1.000000,-1.000000,-1.000000
482149602.294062,0.059052,-0.007294,-1.023102,0.038163,0.005762,0.004209,0.999262,0.004426,-0.038154,-0.004209,0.999975,0.005762,0.038178,-0.005597,0.999255,0.038154,-0.005762,-0.999255,-0.000617,-0.000814,-0.025128,-0.002283,-0.008171,-0.002519,22.997280,27.460064,-1.000000,-1.000000,-1.000000
482149602.304347,0.054123,-0.007339,-1.022430,0.038163,0.005762,0.004209,0.999262,0.004426,-0.038154,-0.004209,0.999975,0.005762,0.038178,-0.005597,0.999255,0.038154,-0.005762,-0.999255,-0.000617,-0.000814,-0.025128,-0.002283,-0.008171,-0.002519,22.997280,27.460064,-1.000000,-1.000000,-1.000000
482149602.313280,0.032883,-0.003708,-1.027618,0.038163,0.005762,0.004209,0.999262,0.004426,-0.038154,-0.004209,0.999975,0.005762,0.038178,-0.005597,0.999255,0.038154,-0.005762,-0.999255,-0.000617,-0.000814,-0.025128,-0.002283,-0.008171,-0.002519,22.997280,27.460064,-1.000000,-1.000000,-1.000000
482149602.324173,0.035553,-0.007584,-1.024506,0.038163,0.005762,0.004209,0.999262,0.004426,-0.038154,-0.004209,0.999975,0.005762,0.038178,-0.005597,0.999255,0.038154,-0.005762,-0.999255,-0.000617,-0.000814,-0.025128,-0.002283,-0.008171,-0.002519,22.997280,27.460064,-1.000000,-1.000000,-1.000000
482149602.334153,0.039169,-0.005493,-1.017487,0.038163,0.005762,0.004209,0.999262,0.004426,-0.038154,-0.004209,0.999975,0.005762,0.038178,-0.005597,0.999255,0.038154,-0.005762,-0.999255,-0.000617,-0.000814,-0.025128,-0.002283,-0.008171,-0.002519,22.997280,27.460064,-1.000000,-1.000000,-1.000000
482149602.344079,0.037506,-0.003586,-1.022491,0.038163,0.005762,0.004209,0.999262,0.004426,-0.038154,-0.004209,0.999975,0.005762,0.038178,-0.005597,0.999255,0.038154,-0.005762,-0.999255,-0.000617,-0.000814,-0.025128,-0.002283,-0.008171,-0.002519,22.997280,27.460064,-1.000000,-1.000000,-1.000000
482149602.354136,0.042618,-0.007523,-1.027954,0.038163,0.005762,0.004209,0.999262,0.004426,-0.038154,-0.004209,0.999975,0.005762,0.038178,-0.005597,0.999255,0.038154,-0.005762,-0.999255,-0.000617,-0.000814,-0.025128,-0.002283,-0.008171,-0.002519,22.997280,27.460064,-1.000000,-1.000000,-1.000000
482149602.363568,0.042618,-0.007523,-1.027954,0.038163,0.005762,0.004209,0.999262,0.004426,-0.038154,-0.004209,0.999975,0.005762,0.038178,-0.005597,0.999255,0.038154,-0.005762,-0.999255,-0.000617,-0.000814,-0.025128,-0.002283,-0.008171,-0.002519,22.997280,27.460064,-1.000000,-1.000000,-1.000000
482149602.374182,0.045059,-0.004425,-1.017151,0.038163,0.005762,0.004209,0.999262,0.004426,-0.038154,-0.004209,0.999975,0.005762,0.038178,-0.005597,0.999255,0.038154,-0.005762,-0.999255,-0.000617,-0.000814,-0.025128,-0.002283,-0.008171,-0.002519,22.997280,27.460064,-1.000000,-1.000000,-1.000000
482149602.384125,0.039673,-0.010559,-1.029053,0.038163,0.005762,0.004209,0.999262,0.004426,-0.038154,-0.004209,0.999975,0.005762,0.038178,-0.005597,0.999255,0.038154,-0.005762,-0.999255,-0.000617,-0.000814,-0.025128,-0.002283,-0.008171,-0.002519,22.997280,27.460064,-1.000000,-1.000000,-1.000000
482149602.394125,0.026718,-0.003738,-1.023132,0.038163,0.005762,0.004209,0.999262,0.004426,-0.038154,-0.004209,0.999975,0.005762,0.038178,-0.005597,0.999255,0.038154,-0.005762,-0.999255,-0.000617,-0.000814,-0.025128,-0.002283,-0.008171,-0.002519,22.997280,27.460064,-1.000000,-1.000000,-1.000000
482149602.404117,0.036118,-0.012451,-1.018570,0.038163,0.005762,0.004209,0.999262,0.004426,-0.038154,-0.004209,0.999975,0.005762,0.038178,-0.005597,0.999255,0.038154,-0.005762,-0.999255,-0.000617,-0.000814,-0.025128,-0.002283,-0.008171,-0.002519,22.997280,27.460064,-1.000000,-1.000000,-1.000000
482149602.414146,0.039734,-0.005600,-1.028137,0.038163,0.005762,0.004209,0.999262,0.004426,-0.038154,-0.004209,0.999975,0.005762,0.038178,-0.005597,0.999255,0.038154,-0.005762,-0.999255,-0.000617,-0.000814,-0.025128,-0.002283,-0.008171,-0.002519,22.997280,27.460064,-1.000000,-1.000000,-1.000000
482149602.424145,0.039780,-0.007599,-1.030060,0.038163,0.005762,0.004209,0.999262,0.004426,-0.038154,-0.004209,0.999975,0.005762,0.038178,-0.005597,0.999255,0.038154,-0.005762,-0.999255,-0.000617,-0.000814,-0.025128,-0.002283,-0.008171,-0.002519,22.997280,27.460064,-1.000000,-1.000000,-1.000000
482149602.434151,0.035767,-0.010406,-1.010849,0.038163,0.005762,0.004209,0.999262,0.004426,-0.038154,-0.004209,0.999975,0.005762,0.038178,-0.005597,0.999255,0.038154,-0.005762,-0.999255,-0.000617,-0.000814,-0.025128,-0.002283,-0.008171,-0.002519,22.997280,27.460064,-1.000000,-1.000000,-1.000000
482149602.444148,0.028000,-0.006760,-1.029816,0.038163,0.005762,0.004209,0.999262,0.004426,-0.038154,-0.004209,0.999975,0.005762,0.038178,-0.005597,0.999255,0.038154,-0.005762,-0.999255,-0.000617,-0.000814,-0.025128,-0.002283,-0.008171,-0.002519,22.997280,27.460064,-1.000000,-1.000000,-1.000000
482149602.454104,0.047562,-0.010468,-1.029556,0.038163,0.005762,0.004209,0.999262,0.004426,-0.038154,-0.004209,0.999975,0.005762,0.038178,-0.005597,0.999255,0.038154,-0.005762,-0.999255,-0.000617,-0.000814,-0.025128,-0.002283,-0.008171,-0.002519,22.997280,27.460064,-1.000000,-1.000000,-1.000000
482149602.464161,0.025024,-0.003799,-1.028091,0.038163,0.005762,0.004209,0.999262,0.004426,-0.038154,-0.004209,0.999975,0.005762,0.038178,-0.005597,0.999255,0.038154,-0.005762,-0.999255,-0.000617,-0.000814,-0.025128,-0.002283,-0.008171,-0.002519,22.997280,27.460064,-1.000000,-1.000000,-1.000000
482149602.473466,0.025024,-0.003799,-1.028091,0.038163,0.005762,0.004209,0.999262,0.004426,-0.038154,-0.004209,0.999975,0.005762,0.038178,-0.005597,0.999255,0.038154,-0.005762,-0.999255,-0.000617,-0.000814,-0.025128,-0.002283,-0.008171,-0.002519,22.997280,27.460064,-1.000000,-1.000000,-1.000000
482149602.484281,0.019150,-0.003677,-1.009995,0.038163,0.005762,0.004209,0.999262,0.004426,-0.038154,-0.004209,0.999975,0.005762,0.038178,-0.005597,0.999255,0.038154,-0.005762,-0.999255,-0.000617,-0.000814,-0.025128,-0.002283,-0.008171,-0.002519,22.997280,27.460064,-1.000000,-1.000000,-1.000000
482149602.494019,0.040466,-0.005539,-1.023270,0.038163,0.005762,0.004209,0.999262,0.004426,-0.038154,-0.004209,0.999975,0.005762,0.038178,-0.005597,0.999255,0.038154,-0.005762,-0.999255,-0.000617,-0.000814,-0.025128,-0.002283,-0.008171,-0.002519,22.997280,27.460064,-1.000000,-1.000000,-1.000000
482149602.504120,0.028931,-0.008728,-1.029739,0.038163,0.005762,0.004209,0.999262,0.004426,-0.038154,-0.004209,0.999975,0.005762,0.038178,-0.005597,0.999255,0.038154,-0.005762,-0.999255,-0.000617,-0.000814,-0.025128,-0.002283,-0.008171,-0.002519,22.997280,27.460064,-1.000000,-1.000000,-1.000000
482149602.514119,0.045303,-0.007248,-1.004486,0.038163,0.005762,0.004209,0.999262,0.004426,-0.038154,-0.004209,0.999975,0.005762,0.038178,-0.005597,0.999255,0.038154,-0.005762,-0.999255,-0.000617,-0.000814,-0.025128,-0.002283,-0.008171,-0.002519,22.997280,27.460064,-1.000000,-1.000000,-1.000000
482149602.524124,0.022949,-0.007782,-1.028168,0.038163,0.005762,0.004209,0.999262,0.004426,-0.038154,-0.004209,0.999975,0.005762,0.038178,-0.005597,0.999255,0.038154,-0.005762,-0.999255,-0.000617,-0.000814,-0.025128,-0.002283,-0.008171,-0.002519,22.997280,27.460064,-1.000000,-1.000000,-1.000000
482149602.534168,0.036209,-0.004532,-1.016724,0.038163,0.005762,0.004209,0.999262,0.004426,-0.038154,-0.004209,0.999975,0.005762,0.038178,-0.005597,0.999255,0.038154,-0.005762,-0.999255,-0.000617,-0.000814,-0.025128,-0.002283,-0.008171,-0.002519,22.997280,27.460064,-1.000000,-1.000000,-1.000000
482149602.544141,0.043793,-0.010559,-1.032700,0.039527,0.005420,-0.000118,0.999219,0.000096,-0.039516,0.000118,0.999985,0.005420,0.039516,-0.005420,0.999204,0.039516,-0.005420,-0.999204,-0.016567,-0.002362,-0.028963,0.002529,0.000252,-0.002288,22.997280,27.460064,-1.000000,-1.000000,-1.000000
482149602.553396,0.061798,-0.011185,-1.020935,0.039527,0.005420,-0.000118,0.999219,0.000096,-0.039516,0.000118,0.999985,0.005420,0.039516,-0.005420,0.999204,0.039516,-0.005420,-0.999204,-0.016567,-0.002362,-0.028963,0.002529,0.000252,-0.002288,22.997280,27.460064,-1.000000,-1.000000,-1.000000
482149602.564264,0.041809,-0.004608,-1.029984,0.039524,0.005391,-0.000070,0.999219,0.000143,-0.039513,0.000070,0.999985,0.005391,0.039513,-0.005390,0.999205,0.039513,-0.005391,-0.999205,-0.016564,-0.002391,-0.028963,-0.000557,0.000368,0.009299,22.997280,27.460064,-1.000000,-1.000000,-1.000000
482149602.574089,0.036606,-0.006393,-1.006943,0.039393,0.005734,-0.000001,0.999224,0.000224,-0.039382,0.000001,0.999984,0.005734,0.039383,-0.005729,0.999208,0.039382,-0.005734,-0.999208,0.004410,-0.004825,-0.033492,-0.005454,-0.000794,0.010235,22.997280,27.460064,-1.000000,-1.000000,-1.000000
482149602.584143,0.036606,-0.006393,-1.006943,0.041372,0.006193,0.000061,0.999144,0.000318,-0.041360,-0.000061,0.999981,0.006193,0.041361,-0.006186,0.999125,0.041360,-0.006193,-0.999125,0.020438,-0.004991,-0.021810,-0.005384,-0.001990,0.009080,22.997280,27.460064,-1.000000,-1.000000,-1.000000
482149602.594219,0.040405,-0.001541,-1.020401,0.041372,0.006193,0.000061,0.999144,0.000318,-0.041360,-0.000061,0.999981,0.006193,0.041361,-0.006186,0.999125,0.041360,-0.006193,-0.999125,0.020438,-0.004991,-0.021810,-0.005384,-0.001990,0.009080,22.997280,27.460064,-1.000000,-1.000000,-1.000000
482149602.604077,0.040222,-0.008682,-1.038757,0.040896,0.006027,0.000084,0.999164,0.000331,-0.040884,-0.000084,0.999982,0.006027,0.040885,-0.006018,0.999146,0.040884,-0.006027,-0.999146,-0.004278,-0.000367,-0.007797,-0.002769,0.001546,0.005644,22.997280,27.460064,-1.000000,-1.000000,-1.000000
482149602.614168,0.033585,-0.006424,-1.005188,0.040849,0.005982,0.000084,0.999166,0.000328,-0.040837,-0.000084,0.999982,0.005982,0.040838,-0.005974,0.999148,0.040837,-0.005982,-0.999148,-0.004231,-0.000411,-0.007795,-0.002366,-0.004485,-0.001304,22.997280,27.460064,-1.000000,-1.000000,-1.000000
482149602.624127,0.046356,-0.006470,-1.023865,0.040559,0.005895,0.000199,0.999178,0.000437,-0.040547,-0.000199,0.999983,0.005895,0.040549,-0.005882,0.999160,0.040547,-0.005895,-0.999160,-0.000325,-0.002787,-0.039597,0.005619,-0.004450,0.007334,22.997280,27.460064,-1.000000,-1.000000,-1.000000
482149602.634110,0.045197,-0.009628,-1.040390,0.040559,0.005895,0.000199,0.999178,0.000437,-0.040547,-0.000199,0.999983,0.005895,0.040549,-0.005882,0.999160,0.040547,-0.005895,-0.999160,-0.000325,-0.002787,-0.039597,0.005619,-0.004450,0.007334,22.997280,27.460064,-1.000000,-1.000000,-1.000000
482149602.644116,0.034561,-0.010590,-1.025497,0.040028,0.005910,0.000266,0.999199,0.000502,-0.040016,-0.000266,0.999982,0.005910,0.040019,-0.005895,0.999182,0.040016,-0.005910,-0.999182,-0.006432,-0.000514,-0.006006,-0.001962,-0.005566,0.012830,22.997280,27.460064,-1.000000,-1.000000,-1.000000
482149602.654121,0.035385,-0.006561,-1.020630,0.040505,0.006104,0.000380,0.999180,0.000627,-0.040493,-0.000380,0.999981,0.006104,0.040496,-0.006084,0.999161,0.040493,-0.006104,-0.999161,0.004704,-0.003524,-0.041229,-0.004175,-0.000805,0.009126,22.997280,27.460064,-1.000000,-1.000000,-1.000000
482149602.664079,0.040237,-0.010468,-1.021255,0.040505,0.006104,0.000380,0.999180,0.000627,-0.040493,-0.000380,0.999981,0.006104,0.040496,-0.006084,0.999161,0.040493,-0.006104,-0.999161,0.004704,-0.003524,-0.041229,-0.004175,-0.000805,0.009126,22.997280,27.460064,-1.000000,-1.000000,-1.000000
482149602.674119,0.038849,0.000336,-1.027313,0.040513,0.006138,0.000375,0.999179,0.000623,-0.040501,-0.000375,0.999981,0.006138,0.040504,-0.006117,0.999161,0.040501,-0.006138,-0.999161,0.004696,-0.003491,-0.041229,0.001192,0.001477,-0.000024,22.997280,27.460064,-1.000000,-1.000000,-1.000000
482149602.684219,0.040283,-0.006500,-1.020340,0.039820,0.006298,0.000442,0.999207,0.000692,-0.039808,-0.000442,0.999980,0.006298,0.039812,-0.006275,0.999187,0.039808,-0.006298,-0.999187,-0.004423,-0.000264,-0.021442,-0.003903,0.002720,0.004394,22.997280,27.460064,-1.000000,-1.000000,-1.000000
482149602.694321,0.040283,-0.006500,-1.020340,0.039790,0.006499,0.000462,0.999208,0.000721,-0.039779,-0.000462,0.999979,0.006499,0.039783,-0.006476,0.999187,0.039779,-0.006499,-0.999187,0.000459,-0.003968,-0.022068,-0.002224,-0.001378,-0.000218,22.997280,27.460064,-1.000000,-1.000000,-1.000000
482149602.704047,0.042557,-0.006531,-1.026031,0.039790,0.006499,0.000462,0.999208,0.000721,-0.039779,-0.000462,0.999979,0.006499,0.039783,-0.006476,0.999187,0.039779,-0.006499,-0.999187,0.000459,-0.003968,-0.022068,-0.002224,-0.001378,-0.000218,22.997280,27.460064,-1.000000,-1.000000,-1.000000
482149602.714120,0.035538,-0.010574,-1.025436,0.039644,0.006238,0.000484,0.999214,0.000731,-0.039633,-0.000484,0.999980,0.006238,0.039636,-0.006214,0.999195,0.039633,-0.006238,-0.999195,0.000650,-0.000262,-0.021145,0.001263,0.003402,0.002250,22.997280,27.460064,-1.000000,-1.000000,-1.000000
482149602.724141,0.038254,-0.009491,-1.020416,0.039664,0.006222,0.000531,0.999213,0.000777,-0.039653,-0.000531,0.999981,0.006222,0.039657,-0.006196,0.999194,0.039653,-0.006222,-0.999194,0.000630,-0.000278,-0.021146,0.003678,0.003392,0.002375,22.997280,27.460064,-1.000000,-1.000000,-1.000000
482149602.734211,0.038589,-0.010559,-1.027176,0.039553,0.006379,0.000620,0.999218,0.000872,-0.039542,-0.000620,0.999979,0.006379,0.039546,-0.006349,0.999198,0.039542,-0.006379,-0.999198,-0.004004,-0.004195,-0.026239,-0.003969,0.001097,0.009058,22.997280,27.460064,-1.000000,-1.000000,-1.000000
482149602.744131,0.044693,-0.005554,-1.028824,0.039553,0.006379,0.000620,0.999218,0.000872,-0.039542,-0.000620,0.999979,0.006379,0.039546,-0.006349,0.999198,0.039542,-0.006379,-0.999198,-0.004004,-0.004195,-0.026239,-0.003969,0.001097,0.009058,22.997280,27.460064,-1.000000,-1.000000,-1.000000
482149602.754048,0.067520,-0.007095,-1.015778,0.039437,0.006448,0.000652,0.999222,0.000906,-0.039426,-0.000652,0.999979,0.006448,0.039431,-0.006417,0.999202,0.039426,-0.006448,-0.999202,-0.001172,-0.003043,-0.021215,-0.008128,-0.003763,-0.002843,22.997280,27.460064,-1.000000,-1.000000,-1.000000
482149602.764119,0.066116,-0.010223,-1.027481,0.039275,0.006640,0.000727,0.999228,0.000987,-0.039264,-0.000727,0.999978,0.006640,0.039270,-0.006606,0.999207,0.039264,-0.006640,-0.999207,-0.000675,-0.003919,-0.027969,0.007173,-0.000186,0.004954,22.997280,27.460064,-1.000000,-1.000000,-1.000000
482149602.774064,0.022827,-0.008774,-1.026230,0.039275,0.006640,0.000727,0.999228,0.000987,-0.039264,-0.000727,0.999978,0.006640,0.039270,-0.006606,0.999207,0.039264,-0.006640,-0.999207,-0.000675,-0.003919,-0.027969,0.007173,-0.000186,0.004954,22.997280,27.460064,-1.000000,-1.000000,-1.000000
482149602.783467,0.022827,-0.008774,-1.026230,0.039432,0.006575,0.000747,0.999222,0.001005,-0.039421,-0.000747,0.999978,0.006575,0.039427,-0.006541,0.999201,0.039421,-0.006575,-0.999201,0.005272,0.001021,-0.029623,0.000193,-0.000196,-0.000108,22.997280,27.460064,-1.000000,-1.000000,-1.000000
482149602.794225,0.040344,-0.007294,-1.003815,0.041354,0.006728,0.000716,0.999145,0.000993,-0.041341,-0.000716,0.999977,0.006728,0.041347,-0.006693,0.999122,0.041341,-0.006728,-0.999122,0.024775,-0.003495,-0.028359,0.000195,-0.000173,-0.000108,22.997280,27.460064,-1.000000,-1.000000,-1.000000
482149602.804191,0.025833,0.001221,-1.022263,0.040651,0.006747,0.000778,0.999173,0.001052,-0.040639,-0.000778,0.999977,0.006746,0.040645,-0.006709,0.999151,0.040639,-0.006746,-0.999151,-0.017812,-0.002027,-0.027079,-0.004904,-0.000120,0.004326,22.997280,27.460064,-1.000000,-1.000000,-1.000000
482149602.813542,0.022339,-0.003693,-1.014664,0.040651,0.006747,0.000778,0.999173,0.001052,-0.040639,-0.000778,0.999977,0.006746,0.040645,-0.006709,0.999151,0.040639,-0.006746,-0.999151,-0.017812,-0.002027,-0.027079,-0.004904,-0.000120,0.004326,22.997280,27.460064,-1.000000,-1.000000,-1.000000
482149602.824139,0.022736,-0.002762,-1.021439,0.040592,0.006747,0.000776,0.999176,0.001049,-0.040580,-0.000776,0.999977,0.006747,0.040586,-0.006710,0.999153,0.040580,-0.006747,-0.999153,-0.000236,-0.000547,-0.004661,-0.002017,-0.006172,-0.003668,22.997280,27.460064,-1.000000,-1.000000,-1.000000
482149602.834062,0.047989,-0.004379,-1.016983,0.040036,0.006473,0.000774,0.999198,0.001032,-0.040025,-0.000774,0.999979,0.006473,0.040031,-0.006437,0.999178,0.040025,-0.006473,-0.999178,-0.014192,0.007694,-0.023085,0.001467,-0.000206,-0.001216,22.997280,27.460064,-1.000000,-1.000000,-1.000000
482149602.844210,0.039917,-0.002655,-1.030106,0.038847,0.006265,0.000811,0.999245,0.001054,-0.038836,-0.000811,0.999980,0.006265,0.038842,-0.006229,0.999226,0.038836,-0.006265,-0.999226,-0.016100,0.003503,-0.022213,0.001233,-0.001428,0.003474,22.997280,27.460064,-1.000000,-1.000000,-1.000000
482149602.854170,0.042770,-0.014328,-1.015228,0.038847,0.006265,0.000811,0.999245,0.001054,-0.038836,-0.000811,0.999980,0.006265,0.038842,-0.006229,0.999226,0.038836,-0.006265,-0.999226,-0.016100,0.003503,-0.022213,0.001233,-0.001428,0.003474,22.997280,27.460064,-1.000000,-1.000000,-1.000000
482149602.864126,0.035782,-0.004654,-1.027435,0.039092,0.006159,0.000851,0.999235,0.001091,-0.039081,-0.000851,0.999981,0.006159,0.039087,-0.006121,0.999217,0.039081,-0.006159,-0.999217,0.008908,0.001780,-0.017766,-0.003464,-0.003813,0.000912,22.997280,27.460064,-1.000000,-1.000000,-1.000000
482149602.874168,0.035583,-0.008606,-1.025467,0.039033,0.006026,0.000973,0.999238,0.001208,-0.039023,-0.000973,0.999981,0.006026,0.039029,-0.005983,0.999220,0.039023,-0.006026,-0.999220,0.000894,0.003371,-0.030885,-0.002191,-0.001442,-0.000229,22.997280,27.460064,-1.000000,-1.000000,-1.000000
482149602.884322,0.027115,0.001358,-1.009583,0.039033,0.006026,0.000973,0.999238,0.001208,-0.039023,-0.000973,0.999981,0.006026,0.039029,-0.005983,0.999220,0.039023,-0.006026,-0.999220,0.000894,0.003371,-0.030885,-0.002191,-0.001442,-0.000229,22.997280,27.460064,-1.000000,-1.000000,-1.000000
482149602.893522,0.027115,0.001358,-1.009583,0.039121,0.006269,0.000972,0.999234,0.001216,-0.039110,-0.000972,0.999980,0.006269,0.039117,-0.006226,0.999215,0.039110,-0.006269,-0.999215,0.003660,-0.008059,-0.016013,-0.001115,-0.000231,0.002161,22.997280,27.460064,-1.000000,-1.000000,-1.000000
482149602.904174,0.026093,0.000366,-1.009628,0.038852,0.006245,0.001008,0.999245,0.001250,-0.038841,-0.001008,0.999980,0.006245,0.038848,-0.006201,0.999226,0.038841,-0.006245,-0.999226,-0.003258,-0.002361,-0.026241,-0.002189,-0.000250,-0.000244,22.997280,27.460064,-1.000000,-1.000000,-1.000000
482149602.914193,0.024155,-0.007599,-1.013535,0.038500,0.006051,0.000999,0.999258,0.001231,-0.038490,-0.000999,0.999981,0.006051,0.038497,-0.006008,0.999241,0.038490,-0.006051,-0.999241,-0.011375,0.007409,-0.010342,0.006463,0.002065,-0.003350,22.997280,27.460064,-1.000000,-1.000000,-1.000000
482149602.924108,0.049255,-0.008224,-1.005203,0.038500,0.006051,0.000999,0.999258,0.001231,-0.038490,-0.000999,0.999981,0.006051,0.038497,-0.006008,0.999241,0.038490,-0.006051,-0.999241,-0.011375,0.007409,-0.010342,0.006463,0.002065,-0.003350,22.997280,27.460064,-1.000000,-1.000000,-1.000000
482149602.934161,0.039536,-0.009735,-1.044617,0.038096,0.005868,0.000994,0.999274,0.001216,-0.038086,-0.000994,0.999982,0.005868,0.038093,-0.005826,0.999257,0.038086,-0.005868,-0.999257,-0.011994,0.006234,-0.010371,-0.014339,-0.000197,0.000299,22.997280,27.460064,-1.000000,-1.000000,-1.000000
482149602.944033,0.047012,-0.005386,-1.017029,0.037690,0.005883,0.001000,0.999289,0.001221,-0.037680,-0.001000,0.999982,0.005883,0.037687,-0.005841,0.999273,0.037680,-0.005883,-0.999273,-0.013526,-0.001716,-0.014262,-0.002261,0.000940,0.000911,22.997280,27.460064,-1.000000,-1.000000,-1.000000
482149602.954872,0.030518,-0.004639,-1.020950,0.037965,0.005979,0.000990,0.999279,0.001216,-0.037955,-0.000990,0.999982,0.005979,0.037962,-0.005937,0.999262,0.037955,-0.005979,-0.999262,0.001581,-0.003757,-0.045355,-0.005680,-0.003847,-0.002728,22.997280,27.460064,-1.000000,-1.000000,-1.000000
482149602.964030,0.024597,-0.008698,-1.022217,0.037965,0.005979,0.000990,0.999279,0.001216,-0.037955,-0.000990,0.999982,0.005979,0.037962,-0.005937,0.999262,0.037955,-0.005979,-0.999262,0.001581,-0.003757,-0.045355,-0.005680,-0.003847,-0.002728,22.997280,27.460064,-1.000000,-1.000000,-1.000000
482149602.974143,0.038589,-0.002594,-1.023407,0.038204,0.005962,0.000965,0.999270,0.001192,-0.038194,-0.000965,0.999982,0.005962,0.038201,-0.005921,0.999253,0.038194,-0.005962,-0.999253,0.008818,0.000576,-0.017776,-0.000784,0.003287,-0.003743,22.997280,27.460064,-1.000000,-1.000000,-1.000000
482149602.984136,0.066116,-0.010223,-1.027481,0.037953,0.005901,0.000905,0.999279,0.001128,-0.037944,-0.000905,0.999982,0.005901,0.037950,-0.005863,0.999262,0.037944,-0.005901,-0.999262,-0.007426,0.001263,-0.021688,0.001717,-0.000330,-0.004745,22.997280,27.460064,-1.000000,-1.000000,-1.000000
482149602.994143,0.037430,-0.006561,-1.022446,0.037953,0.005901,0.000905,0.999279,0.001128,-0.037944,-0.000905,0.999982,0.005901,0.037950,-0.005863,0.999262,0.037944,-0.005901,-0.999262,-0.007426,0.001263,-0.021688,0.001717,-0.000330,-0.004745,22.997280,27.460064,-1.000000,-1.000000,-1.000000
482149603.003573,0.037430,-0.006561,-1.022446,0.037573,0.006001,0.000912,0.999294,0.001136,-0.037564,-0.000912,0.999982,0.006001,0.037570,-0.005962,0.999276,0.037564,-0.006001,-0.999276,-0.012967,-0.002697,-0.022941,0.006214,-0.000302,0.001362,22.997280,27.460064,-1.000000,-1.000000,-1.000000
482149603.014042,0.034195,-0.006546,-1.016815,0.038251,0.006044,0.000970,0.999268,0.001201,-0.038241,-0.000970,0.999981,0.006044,0.038247,-0.006003,0.999250,0.038241,-0.006044,-0.999250,0.027876,-0.004179,-0.028231,0.000309,-0.000289,-0.001294,22.997280,27.460064,-1.000000,-1.000000,-1.000000
482149603.024022,0.060425,-0.004379,-1.028870,0.038216,0.006056,0.001002,0.999269,0.001232,-0.038206,-0.001002,0.999981,0.006056,0.038213,-0.006013,0.999252,0.038206,-0.006056,-0.999252,-0.000777,-0.000506,-0.023194,0.001182,0.000952,0.004609,22.997280,27.460064,-1.000000,-1.000000,-1.000000
482149603.034051,0.100693,-0.006653,-1.010910,0.038216,0.006056,0.001002,0.999269,0.001232,-0.038206,-0.001002,0.999981,0.006056,0.038213,-0.006013,0.999252,0.038206,-0.006056,-0.999252,-0.000777,-0.000506,-0.023194,0.001182,0.000952,0.004609,22.997280,27.460064,-1.000000,-1.000000,-1.000000
482149603.044028,0.052414,-0.003433,-1.025497,0.038089,0.006041,0.001043,0.999274,0.001272,-0.038079,-0.001043,0.999981,0.006041,0.038086,-0.005997,0.999256,0.038079,-0.006041,-0.999256,-0.003884,-0.000505,-0.017559,-0.007005,0.002137,-0.000532,22.997280,27.460064,-1.000000,-1.000000,-1.000000
482149603.054084,0.042847,-0.011353,-1.015259,0.038619,0.005954,0.001021,0.999254,0.001250,-0.038608,-0.001021,0.999982,0.005954,0.038615,-0.005910,0.999237,0.038608,-0.005954,-0.999237,0.021816,0.001574,-0.029633,-0.002308,-0.000243,0.002094,22.997280,27.460064,-1.000000,-1.000000,-1.000000
482149603.064022,0.060303,-0.009323,-1.028809,0.040325,0.005864,0.001041,0.999186,0.001277,-0.040313,-0.001041,0.999982,0.005864,0.040320,-0.005817,0.999170,0.040313,-0.005864,-0.999170,0.012101,0.002430,-0.026328,-0.003381,-0.003816,-0.000264,22.997280,27.460064,-1.000000,-1.000000,-1.000000
482149603.073405,0.033722,-0.006653,-1.026550,0.040325,0.005864,0.001041,0.999186,0.001277,-0.040313,-0.001041,0.999982,0.005864,0.040320,-0.005817,0.999170,0.040313,-0.005864,-0.999170,0.012101,0.002430,-0.026328,-0.003381,-0.003816,-0.000264,22.997280,27.460064,-1.000000,-1.000000,-1.000000
482149603.084020,0.046906,-0.007355,-1.016052,0.040352,0.006030,0.001029,0.999185,0.001272,-0.040340,-0.001029,0.999981,0.006030,0.040347,-0.005983,0.999168,0.040340,-0.006030,-0.999168,0.002506,-0.005323,-0.016091,0.006215,-0.001458,0.001378,22.997280,27.460064,-1.000000,-1.000000,-1.000000
482149603.093377,0.086792,-0.004807,-1.006882,0.040794,0.006145,0.001068,0.999167,0.001317,-0.040782,-0.001068,0.999981,0.006145,0.040789,-0.006096,0.999149,0.040782,-0.006145,-0.999149,0.019521,-0.003178,-0.029659,0.004807,0.002165,0.004781,22.997280,27.460064,-1.000000,-1.000000,-1.000000
482149603.104008,0.036743,0.000351,-1.024536,0.040794,0.006145,0.001068,0.999167,0.001317,-0.040782,-0.001068,0.999981,0.006145,0.040789,-0.006096,0.999149,0.040782,-0.006145,-0.999149,0.019521,-0.003178,-0.029659,0.004807,0.002165,0.004781,22.997280,27.460064,-1.000000,-1.000000,-1.000000
482149603.113278,0.036743,0.000351,-1.024536,0.040582,0.006144,0.001073,0.999176,0.001322,-0.040571,-0.001073,0.999981,0.006144,0.040578,-0.006096,0.999158,0.040571,-0.006144,-0.999158,-0.006849,-0.000509,-0.027393,-0.003378,-0.005006,-0.000248,22.997280,27.460064,-1.000000,-1.000000,-1.000000
482149603.124101,0.041702,-0.003387,-1.008652,0.041789,0.006185,0.001112,0.999126,0.001370,-0.041776,-0.001112,0.999980,0.006185,0.041784,-0.006133,0.999108,0.041776,-0.006185,-0.999108,0.045016,0.001379,-0.007774,0.007155,0.004568,0.006046,22.997280,27.460064,-1.000000,-1.000000,-1.000000
482149603.134039,0.067886,0.000793,-1.018784,0.041630,0.006039,0.001101,0.999133,0.001352,-0.041617,-0.001101,0.999981,0.006039,0.041625,-0.005988,0.999115,0.041617,-0.006039,-0.999115,-0.004874,0.006390,-0.025421,0.001384,-0.004999,0.001174,22.997280,27.460064,-1.000000,-1.000000,-1.000000
482149603.144031,0.090851,-0.006760,-1.010513,0.041630,0.006039,0.001101,0.999133,0.001352,-0.041617,-0.001101,0.999981,0.006039,0.041625,-0.005988,0.999115,0.041617,-0.006039,-0.999115,-0.004874,0.006390,-0.025421,0.001384,-0.004999,0.001174,22.997280,27.460064,-1.000000,-1.000000,-1.000000
482149603.154084,0.029358,-0.001831,-1.034653,0.042203,0.005743,0.001132,0.999109,0.001374,-0.042190,-0.001132,0.999983,0.005743,0.042197,-0.005690,0.999093,0.042190,-0.005743,-0.999093,0.025696,0.006536,-0.019690,-0.004727,0.001014,0.001952,22.997280,27.460064,-1.000000,-1.000000,-1.000000
482149603.164098,0.012344,-0.003769,-1.011368,0.042223,0.005750,0.001158,0.999108,0.001399,-0.042210,-0.001158,0.999983,0.005750,0.042218,-0.005696,0.999092,0.042210,-0.005750,-0.999092,0.025676,0.006544,-0.019691,0.003660,0.000989,0.003562,22.997280,27.460064,-1.000000,-1.000000,-1.000000
482149603.174030,0.038940,-0.002472,-1.011719,0.042864,0.005646,0.001157,0.999081,0.001398,-0.042850,-0.001157,0.999983,0.005646,0.042857,-0.005591,0.999066,0.042850,-0.005646,-0.999066,-0.013492,0.003815,-0.035587,-0.004593,-0.004963,-0.000312,22.997280,27.460064,-1.000000,-1.000000,-1.000000
482149603.184020,0.028549,-0.005661,-1.021057,0.042864,0.005646,0.001157,0.999081,0.001398,-0.042850,-0.001157,0.999983,0.005646,0.042857,-0.005591,0.999066,0.042850,-0.005646,-0.999066,-0.013492,0.003815,-0.035587,-0.004593,-0.004963,-0.000312,22.997280,27.460064,-1.000000,-1.000000,-1.000000
482149603.194018,0.013840,-0.005844,-1.021927,0.042172,0.005571,0.001144,0.999110,0.001377,-0.042159,-0.001143,0.999984,0.005571,0.042166,-0.005518,0.999095,0.042159,-0.005571,-0.999095,-0.029815,0.001802,-0.012272,-0.004529,0.000983,-0.001562,22.997280,27.460064,-1.000000,-1.000000,-1.000000
482149603.203724,0.039337,-0.005524,-1.020401,0.041774,0.005495,0.001148,0.999127,0.001377,-0.041762,-0.001148,0.999984,0.005495,0.041769,-0.005442,0.999112,0.041762,-0.005495,-0.999112,-0.013212,-0.000166,-0.021945,0.000235,-0.001422,-0.000108,22.997280,27.460064,-1.000000,-1.000000,-1.000000
482149603.214092,0.103088,-0.010681,-1.020416,0.041774,0.005495,0.001148,0.999127,0.001377,-0.041762,-0.001148,0.999984,0.005495,0.041769,-0.005442,0.999112,0.041762,-0.005495,-0.999112,-0.013212,-0.000166,-0.021945,0.000235,-0.001422,-0.000108,22.997280,27.460064,-1.000000,-1.000000,-1.000000
482149603.224015,0.070221,-0.004242,-1.028290,0.041756,0.005491,0.001196,0.999127,0.001424,-0.041743,-0.001196,0.999984,0.005491,0.041750,-0.005436,0.999113,0.041743,-0.005491,-0.999113,-0.013194,-0.000170,-0.021944,-0.003723,-0.002547,0.005575,22.997280,27.460064,-1.000000,-1.000000,-1.000000
482149603.233575,0.070221,-0.004242,-1.028290,0.041074,0.005437,0.001245,0.999156,0.001467,-0.041061,-0.001245,0.999984,0.005437,0.041069,-0.005382,0.999142,0.041061,-0.005437,-0.999142,-0.001724,-0.000086,-0.021259,-0.000840,0.002131,-0.002561,22.997280,27.460064,-1.000000,-1.000000,-1.000000
482149603.243587,0.055389,-0.007385,-1.028168,0.041088,0.005401,0.001227,0.999155,0.001448,-0.041076,-0.001227,0.999985,0.005401,0.041083,-0.005346,0.999141,0.041076,-0.005401,-0.999141,0.062013,-0.005280,-0.021275,-0.002048,0.003329,-0.002640,22.997280,27.460064,-1.000000,-1.000000,-1.000000
482149603.254084,0.092316,-0.010620,-1.002594,0.041088,0.005401,0.001227,0.999155,0.001448,-0.041076,-0.001227,0.999985,0.005401,0.041083,-0.005346,0.999141,0.041076,-0.005401,-0.999141,0.062013,-0.005280,-0.021275,-0.002048,0.003329,-0.002640,22.997280,27.460064,-1.000000,-1.000000,-1.000000
482149603.264074,0.059647,-0.005219,-1.014328,0.041105,0.005428,0.001208,0.999154,0.001430,-0.041093,-0.001208,0.999985,0.005428,0.041100,-0.005373,0.999141,0.041093,-0.005428,-0.999141,0.014297,-0.001958,-0.029027,0.005224,-0.002689,-0.002194,22.997280,27.460064,-1.000000,-1.000000,-1.000000
482149603.274167,-0.002884,-0.012009,-1.024811,0.041075,0.005436,0.001196,0.999156,0.001419,-0.041063,-0.001196,0.999985,0.005436,0.041070,-0.005382,0.999142,0.041063,-0.005436,-0.999142,0.014326,-0.001949,-0.029026,0.002673,-0.001464,0.000007,22.997280,27.460064,-1.000000,-1.000000,-1.000000
482149603.284224,0.053482,-0.010010,-0.993256,0.041075,0.005436,0.001196,0.999156,0.001419,-0.041063,-0.001196,0.999985,0.005436,0.041070,-0.005382,0.999142,0.041063,-0.005436,-0.999142,0.014326,-0.001949,-0.029026,0.002673,-0.001464,0.000007,22.997280,27.460064,-1.000000,-1.000000,-1.000000
482149603.293636,-0.006485,0.002792,-1.024231,0.042246,0.005492,0.001246,0.999107,0.001477,-0.042233,-0.001246,0.999984,0.005492,0.042240,-0.005434,0.999093,0.042233,-0.005492,-0.999093,0.017414,0.000274,-0.015235,-0.006515,0.001089,0.012416,22.997280,27.460064,-1.000000,-1.000000,-1.000000
482149603.304161,-0.005798,-0.007095,-1.023087,0.042250,0.005432,0.001298,0.999106,0.001526,-0.042237,-0.001298,0.999984,0.005432,0.042244,-0.005373,0.999093,0.042237,-0.005432,-0.999093,-0.045120,-0.006576,-0.025718,-0.004704,0.002183,0.001922,22.997280,27.460064,-1.000000,-1.000000,-1.000000
482149603.314136,0.024872,-0.010529,-1.009552,0.041089,0.005191,0.001381,0.999155,0.001593,-0.041077,-0.001381,0.999986,0.005191,0.041085,-0.005130,0.999142,0.041077,-0.005191,-0.999142,-0.047562,0.007983,-0.025088,-0.001284,0.000990,0.005640,22.997280,27.460064,-1.000000,-1.000000,-1.000000
482149603.324153,0.050705,-0.010468,-1.033249,0.041089,0.005191,0.001381,0.999155,0.001593,-0.041077,-0.001381,0.999986,0.005191,0.041085,-0.005130,0.999142,0.041077,-0.005191,-0.999142,-0.047562,0.007983,-0.025088,-0.001284,0.000990,0.005640,22.997280,27.460064,-1.000000,-1.000000,-1.000000
482149603.334264,0.038239,-0.010284,-1.001953,0.041065,0.005154,0.001391,0.999156,0.001601,-0.041053,-0.001391,0.999986,0.005154,0.041061,-0.005093,0.999144,0.041053,-0.005154,-0.999144,-0.046851,-0.001941,-0.023943,0.000260,-0.003843,-0.000090,22.997280,27.460064,-1.000000,-1.000000,-1.000000
482149603.344202,0.070969,-0.000015,-1.003036,0.041077,0.005141,0.001468,0.999155,0.001678,-0.041065,-0.001468,0.999986,0.005141,0.041073,-0.005076,0.999143,0.041065,-0.005141,-0.999143,-0.016193,-0.005388,-0.010409,-0.004640,0.002156,0.000751,22.997280,27.460064,-1.000000,-1.000000,-1.000000
482149603.354188,0.070969,-0.000015,-1.003036,0.041103,0.005136,0.001569,0.999154,0.001779,-0.041090,-0.001569,0.999986,0.005136,0.041099,-0.005067,0.999142,0.041090,-0.005136,-0.999142,0.009615,-0.005332,-0.034107,-0.003029,0.004660,0.014899,22.997280,27.460064,-1.000000,-1.000000,-1.000000
482149603.364387,0.115570,-0.009674,-1.032303,0.041103,0.005136,0.001569,0.999154,0.001779,-0.041090,-0.001569,0.999986,0.005136,0.041099,-0.005067,0.999142,0.041090,-0.005136,-0.999142,0.009615,-0.005332,-0.034107,-0.003029,0.004660,0.014899,22.997280,27.460064,-1.000000,-1.000000,-1.000000
482149603.374067,0.058792,-0.003265,-1.016357,0.041040,0.005291,0.001615,0.999156,0.001831,-0.041028,-0.001615,0.999985,0.005291,0.041037,-0.005221,0.999144,0.041028,-0.005291,-0.999144,0.029941,0.005276,-0.003892,0.006166,-0.000267,0.002519,22.997280,27.460064,-1.000000,-1.000000,-1.000000
482149603.384137,0.012756,-0.013809,-1.023834,0.041059,0.005277,0.001640,0.999155,0.001856,-0.041047,-0.001640,0.999985,0.005277,0.041056,-0.005205,0.999143,0.041047,-0.005277,-0.999143,0.029921,0.005261,-0.003893,-0.003432,0.005731,0.000766,22.997280,27.460064,-1.000000,-1.000000,-1.000000
482149603.394377,-0.038681,-0.001831,-1.049408,0.041059,0.005277,0.001640,0.999155,0.001856,-0.041047,-0.001640,0.999985,0.005277,0.041056,-0.005205,0.999143,0.041047,-0.005277,-0.999143,0.029921,0.005261,-0.003893,-0.003432,0.005731,0.000766,22.997280,27.460064,-1.000000,-1.000000,-1.000000
482149603.404159,-0.016403,-0.016006,-1.012924,0.041077,0.005197,0.001701,0.999155,0.001913,-0.041065,-0.001701,0.999985,0.005197,0.041074,-0.005123,0.999143,0.041065,-0.005197,-0.999143,0.017727,0.001931,-0.017214,-0.001015,0.002140,0.000939,22.997280,27.460064,-1.000000,-1.000000,-1.000000
482149603.414118,0.012115,-0.011871,-1.029724,0.040353,0.005435,0.001736,0.999184,0.001954,-0.040342,-0.001736,0.999984,0.005435,0.040352,-0.005360,0.999171,0.040342,-0.005435,-0.999171,-0.027586,-0.008375,-0.024663,-0.001212,-0.000226,0.004485,22.997280,27.460064,-1.000000,-1.000000,-1.000000
482149603.424096,0.023849,0.002182,-1.021439,0.040349,0.005373,0.001733,0.999184,0.001948,-0.040337,-0.001733,0.999984,0.005373,0.040347,-0.005298,0.999172,0.040337,-0.005373,-0.999172,-0.056740,-0.010634,-0.013753,-0.005575,-0.001473,-0.003949,22.997280,27.460064,-1.000000,-1.000000,-1.000000
482149603.434168,0.104385,-0.010727,-1.026154,0.040349,0.005373,0.001733,0.999184,0.001948,-0.040337,-0.001733,0.999984,0.005373,0.040347,-0.005298,0.999172,0.040337,-0.005373,-0.999172,-0.056740,-0.010634,-0.013753,-0.005575,-0.001473,-0.003949,22.997280,27.460064,-1.000000,-1.000000,-1.000000
482149603.444130,0.044861,-0.006592,-1.032684,0.040358,0.005335,0.001795,0.999184,0.002009,-0.040346,-0.001795,0.999984,0.005335,0.040356,-0.005258,0.999172,0.040346,-0.005335,-0.999172,-0.028231,-0.006536,-0.030553,-0.002620,-0.002577,0.007967,22.997280,27.460064,-1.000000,-1.000000,-1.000000
482149603.453499,0.044861,-0.006592,-1.032684,0.039865,0.005097,0.001784,0.999204,0.001986,-0.039854,-0.001784,0.999985,0.005097,0.039863,-0.005021,0.999193,0.039854,-0.005097,-0.999193,-0.016004,0.007279,-0.022246,-0.002221,-0.005034,0.000972,22.997280,27.460064,-1.000000,-1.000000,-1.000000
482149603.464517,0.052658,-0.004089,-0.993393,0.039813,0.005071,0.001788,0.999206,0.001989,-0.039802,-0.001788,0.999986,0.005071,0.039811,-0.004996,0.999195,0.039802,-0.005071,-0.999195,0.064584,-0.005656,-0.026959,-0.001999,-0.007451,-0.002531,22.997280,27.460064,-1.000000,-1.000000,-1.000000
482149603.473404,0.147827,-0.010239,-1.029404,0.039813,0.005071,0.001788,0.999206,0.001989,-0.039802,-0.001788,0.999986,0.005071,0.039811,-0.004996,0.999195,0.039802,-0.005071,-0.999195,0.064584,-0.005656,-0.026959,-0.001999,-0.007451,-0.002531,22.997280,27.460064,-1.000000,-1.000000,-1.000000
482149603.484133,0.034943,-0.003693,-1.029449,0.039742,0.005092,0.001872,0.999208,0.002073,-0.039731,-0.001872,0.999985,0.005091,0.039741,-0.005013,0.999197,0.039731,-0.005091,-0.999197,0.012927,0.001002,0.005804,0.002764,-0.003880,-0.001156,22.997280,27.460064,-1.000000,-1.000000,-1.000000
482149603.494120,-0.046936,-0.014389,-1.010880,0.039778,0.005094,0.001865,0.999207,0.002066,-0.039767,-0.001865,0.999985,0.005094,0.039777,-0.005016,0.999196,0.039767,-0.005094,-0.999196,0.012891,0.001005,0.005803,0.001486,0.005684,-0.000175,22.997280,27.460064,-1.000000,-1.000000,-1.000000
482149603.504068,-0.009613,-0.011337,-1.045593,0.039778,0.005094,0.001865,0.999207,0.002066,-0.039767,-0.001865,0.999985,0.005094,0.039777,-0.005016,0.999196,0.039767,-0.005094,-0.999196,0.012891,0.001005,0.005803,0.001486,0.005684,-0.000175,22.997280,27.460064,-1.000000,-1.000000,-1.000000
482149603.514113,0.035797,-0.010620,-1.030258,0.039751,0.005072,0.001830,0.999208,0.002030,-0.039740,-0.001829,0.999985,0.005072,0.039750,-0.004995,0.999197,0.039740,-0.005072,-0.999197,-0.004797,0.001379,-0.030252,0.002831,-0.003890,-0.002328,22.997280,27.460064,-1.000000,-1.000000,-1.000000
482149603.524115,-0.044037,-0.003403,-1.005035,0.039716,0.005002,0.001833,0.999209,0.002030,-0.039705,-0.001833,0.999986,0.005002,0.039714,-0.004925,0.999199,0.039705,-0.005002,-0.999199,-0.086641,-0.009387,-0.011681,-0.010656,-0.004996,0.000511,22.997280,27.460064,-1.000000,-1.000000,-1.000000
482149603.534123,0.054764,-0.014420,-1.037827,0.039694,0.005046,0.001847,0.999210,0.002045,-0.039683,-0.001847,0.999986,0.005046,0.039693,-0.004968,0.999200,0.039683,-0.005046,-0.999200,-0.003886,-0.005574,-0.031059,0.001422,-0.002660,0.001108,22.997280,27.460064,-1.000000,-1.000000,-1.000000
482149603.544143,0.134766,-0.008957,-0.986465,0.039694,0.005046,0.001847,0.999210,0.002045,-0.039683,-0.001847,0.999986,0.005046,0.039693,-0.004968,0.999200,0.039683,-0.005046,-0.999200,-0.003886,-0.005574,-0.031059,0.001422,-0.002660,0.001108,22.997280,27.460064,-1.000000,-1.000000,-1.000000
482149603.554088,0.094589,0.002258,-1.002625,0.039703,0.005042,0.001915,0.999210,0.002114,-0.039692,-0.001915,0.999985,0.005041,0.039702,-0.004961,0.999199,0.039692,-0.005041,-0.999199,-0.003895,-0.005579,-0.031059,0.003568,0.000953,0.005870,22.997280,27.460064,-1.000000,-1.000000,-1.000000
482149603.564038,0.094589,0.002258,-1.002625,0.039692,0.005095,0.002015,0.999210,0.002215,-0.039682,-0.002015,0.999985,0.005095,0.039692,-0.005011,0.999199,0.039682,-0.005095,-0.999199,0.015082,-0.009325,-0.038627,-0.007168,-0.000216,0.002978,22.997280,27.460064,-1.000000,-1.000000,-1.000000
482149603.575244,0.090195,-0.004257,-1.052353,0.039690,0.005092,0.002008,0.999210,0.002208,-0.039679,-0.002008,0.999985,0.005092,0.039690,-0.005008,0.999200,0.039679,-0.005092,-0.999200,0.095087,-0.003865,0.012734,0.000213,-0.001461,0.001029,22.997280,27.460064,-1.000000,-1.000000,-1.000000
482149603.584034,0.112289,-0.018219,-0.993546,0.039690,0.005092,0.002008,0.999210,0.002208,-0.039679,-0.002008,0.999985,0.005092,0.039690,-0.005008,0.999200,0.039679,-0.005092,-0.999200,0.095087,-0.003865,0.012734,0.000213,-0.001461,0.001029,22.997280,27.460064,-1.000000,-1.000000,-1.000000
482149603.594370,-0.009933,-0.003326,-1.036011,0.039690,0.005091,0.002032,0.999210,0.002232,-0.039680,-0.002032,0.999985,0.005091,0.039690,-0.005006,0.999200,0.039680,-0.005091,-0.999200,0.050515,0.000834,-0.053153,0.008467,-0.000272,0.004967,22.997280,27.460064,-1.000000,-1.000000,-1.000000
482149603.604236,-0.099670,-0.018478,-1.056747,0.039688,0.005093,0.002025,0.999210,0.002225,-0.039677,-0.002025,0.999985,0.005093,0.039688,-0.005009,0.999200,0.039677,-0.005093,-0.999200,0.072612,-0.013126,0.005654,-0.005760,0.002134,-0.000505,22.997280,27.460064,-1.000000,-1.000000,-1.000000
482149603.614122,-0.025558,0.005035,-0.978775,0.039688,0.005093,0.002025,0.999210,0.002225,-0.039677,-0.002025,0.999985,0.005093,0.039688,-0.005009,0.999200,0.039677,-0.005093,-0.999200,0.072612,-0.013126,0.005654,-0.005760,0.002134,-0.000505,22.997280,27.460064,-1.000000,-1.000000,-1.000000
482149603.624125,0.020615,-0.008926,-1.039932,0.039732,0.005076,0.002015,0.999208,0.002215,-0.039721,-0.002015,0.999985,0.005076,0.039732,-0.004992,0.999198,0.039721,-0.005076,-0.999198,-0.049655,0.001750,-0.036813,0.002914,0.002073,-0.003595,22.997280,27.460064,-1.000000,-1.000000,-1.000000
482149603.634136,-0.055786,-0.002945,-1.042664,0.039724,0.005091,0.001965,0.999209,0.002166,-0.039713,-0.001965,0.999985,0.005091,0.039724,-0.005009,0.999198,0.039713,-0.005091,-0.999198,-0.139384,-0.013387,-0.057549,0.001841,-0.000330,-0.005968,22.997280,27.460064,-1.000000,-1.000000,-1.000000
482149603.644160,0.032211,-0.010132,-0.980957,0.039687,0.005030,0.001967,0.999210,0.002165,-0.039676,-0.001967,0.999985,0.005030,0.039686,-0.004948,0.999200,0.039676,-0.005030,-0.999200,-0.019061,-0.003897,-0.040732,-0.005808,-0.001430,0.000698,22.997280,27.460064,-1.000000,-1.000000,-1.000000
482149603.654105,0.094223,-0.002426,-1.071548,0.039687,0.005030,0.001967,0.999210,0.002165,-0.039676,-0.001967,0.999985,0.005030,0.039686,-0.004948,0.999200,0.039676,-0.005030,-0.999200,-0.019061,-0.003897,-0.040732,-0.005808,-0.001430,0.000698,22.997280,27.460064,-1.000000,-1.000000,-1.000000
482149603.664139,0.192368,-0.009552,-1.016068,0.039695,0.004983,0.001953,0.999210,0.002149,-0.039684,-0.001953,0.999986,0.004983,0.039694,-0.004901,0.999200,0.039684,-0.004983,-0.999200,-0.019070,-0.003944,-0.040732,0.001438,-0.000267,0.001060,22.997280,27.460064,-1.000000,-1.000000,-1.000000
482149603.674204,0.192368,-0.009552,-1.016068,0.039651,0.005099,0.001968,0.999212,0.002168,-0.039640,-0.001968,0.999985,0.005099,0.039651,-0.005017,0.999201,0.039640,-0.005099,-0.999201,-0.007429,-0.005033,0.018244,-0.001177,-0.005000,0.004511,22.997280,27.460064,-1.000000,-1.000000,-1.000000
482149603.683991,0.136795,0.002213,-0.964157,0.039643,0.005157,0.001972,0.999212,0.002175,-0.039632,-0.001972,0.999985,0.005157,0.039643,-0.005075,0.999201,0.039632,-0.005157,-0.999201,0.054591,0.002731,-0.072347,0.008685,-0.000298,0.001436,22.997280,27.460064,-1.000000,-1.000000,-1.000000
482149603.694193,0.123489,-0.009583,-1.033752,0.039643,0.005157,0.001972,0.999212,0.002175,-0.039632,-0.001972,0.999985,0.005157,0.039643,-0.005075,0.999201,0.039632,-0.005157,-0.999201,0.054591,0.002731,-0.072347,0.008685,-0.000298,0.001436,22.997280,27.460064,-1.000000,-1.000000,-1.000000
482149603.704134,-0.033920,-0.003143,-0.991806,0.039611,0.005112,0.002001,0.999213,0.002202,-0.039600,-0.002001,0.999985,0.005112,0.039611,-0.005028,0.999203,0.039600,-0.005112,-0.999203,0.097195,0.007324,0.035045,-0.006949,-0.000242,-0.000552,22.997280,27.460064,-1.000000,-1.000000,-1.000000
482149603.714127,-0.081955,-0.009109,-1.034439,0.039630,0.005114,0.001994,0.999212,0.002195,-0.039620,-0.001994,0.999985,0.005114,0.039630,-0.005031,0.999202,0.039620,-0.005114,-0.999202,0.097175,0.007327,0.035045,-0.002185,0.000942,0.000855,22.997280,27.460064,-1.000000,-1.000000,-1.000000
482149603.724079,-0.043686,0.006287,-1.025543,0.039630,0.005114,0.001994,0.999212,0.002195,-0.039620,-0.001994,0.999985,0.005114,0.039630,-0.005031,0.999202,0.039620,-0.005114,-0.999202,0.097175,0.007327,0.035045,-0.002185,0.000942,0.000855,22.997280,27.460064,-1.000000,-1.000000,-1.000000
482149603.734067,-0.015335,-0.010849,-0.993500,0.039658,0.005131,0.002001,0.999211,0.002203,-0.039647,-0.002001,0.999985,0.005131,0.039658,-0.005047,0.999201,0.039647,-0.005131,-0.999201,-0.073568,0.001987,0.007395,0.008752,0.002079,0.000233,22.997280,27.460064,-1.000000,-1.000000,-1.000000
482149603.744148,-0.033997,0.010208,-1.039581,0.039656,0.005132,0.002069,0.999211,0.002271,-0.039645,-0.002069,0.999985,0.005132,0.039656,-0.005046,0.999201,0.039645,-0.005132,-0.999201,-0.121600,-0.003977,-0.035238,-0.001313,0.002183,0.006758,22.997280,27.460064,-1.000000,-1.000000,-1.000000
482149603.754133,0.080948,-0.010849,-1.011047,0.039673,0.005160,0.002071,0.999211,0.002274,-0.039662,-0.002071,0.999985,0.005160,0.039673,-0.005074,0.999200,0.039662,-0.005160,-0.999200,-0.054997,-0.005689,0.005700,0.004944,0.000940,0.003559,22.997280,27.460064,-1.000000,-1.000000,-1.000000
482149603.764232,0.128952,0.002686,-1.001526,0.039673,0.005160,0.002071,0.999211,0.002274,-0.039662,-0.002071,0.999985,0.005160,0.039673,-0.005074,0.999200,0.039662,-0.005160,-0.999200,-0.054997,-0.005689,0.005700,0.004944,0.000940,0.003559,22.997280,27.460064,-1.000000,-1.000000,-1.000000
482149603.774263,0.200348,-0.006516,-1.016586,0.039671,0.005095,0.002095,0.999211,0.002295,-0.039660,-0.002095,0.999985,0.005095,0.039671,-0.005008,0.999200,0.039660,-0.005095,-0.999200,-0.054995,-0.005754,0.005700,-0.005926,-0.001402,0.003025,22.997280,27.460064,-1.000000,-1.000000,-1.000000
482149603.784178,0.200348,-0.006516,-1.016586,0.039655,0.005089,0.002129,0.999211,0.002329,-0.039645,-0.002129,0.999985,0.005089,0.039656,-0.005001,0.999201,0.039645,-0.005089,-0.999201,0.041303,-0.005760,-0.011846,-0.005525,-0.000272,-0.004018,22.997280,27.460064,-1.000000,-1.000000,-1.000000
482149603.794250,0.124756,0.001511,-1.015381,0.039655,0.005089,0.002129,0.999211,0.002329,-0.039645,-0.002129,0.999985,0.005089,0.039656,-0.005001,0.999201,0.039645,-0.005089,-0.999201,0.041303,-0.005760,-0.011846,-0.005525,-0.000272,-0.004018,22.997280,27.460064,-1.000000,-1.000000,-1.000000
482149603.804403,0.148834,-0.009033,-1.010864,0.039637,0.005114,0.002138,0.999212,0.002339,-0.039626,-0.002138,0.999985,0.005114,0.039637,-0.005025,0.999202,0.039626,-0.005114,-0.999202,0.089326,0.007800,-0.002324,0.007293,-0.001447,0.004888,22.997280,27.460064,-1.000000,-1.000000,-1.000000
482149603.814063,0.096176,0.003326,-0.994781,0.039604,0.005131,0.002124,0.999213,0.002326,-0.039593,-0.002124,0.999985,0.005131,0.039605,-0.005043,0.999203,0.039593,-0.005131,-0.999203,0.085163,0.006642,-0.016178,0.005213,-0.002683,-0.001078,22.997280,27.460064,-1.000000,-1.000000,-1.000000
482149603.824128,-0.125565,0.002350,-1.022644,0.039585,0.005112,0.002101,0.999214,0.002302,-0.039574,-0.002101,0.999985,0.005112,0.039586,-0.005025,0.999204,0.039574,-0.005112,-0.999204,0.085181,0.006623,-0.016177,-0.000626,-0.001496,-0.004922,22.997280,27.460064,-1.000000,-1.000000,-1.000000
482149603.834309,-0.111862,0.008301,-1.037415,0.039585,0.005112,0.002101,0.999214,0.002302,-0.039574,-0.002101,0.999985,0.005112,0.039586,-0.005025,0.999204,0.039574,-0.005112,-0.999204,0.085181,0.006623,-0.016177,-0.000626,-0.001496,-0.004922,22.997280,27.460064,-1.000000,-1.000000,-1.000000
482149603.844139,-0.067825,-0.011597,-1.005371,0.039575,0.005128,0.002124,0.999214,0.002326,-0.039564,-0.002124,0.999985,0.005128,0.039575,-0.005040,0.999204,0.039564,-0.005128,-0.999204,0.056612,0.008455,0.004422,0.007493,-0.000286,0.001359,22.997280,27.460064,-1.000000,-1.000000,-1.000000
482149603.854264,-0.066925,0.007904,-1.031815,0.039540,0.005131,0.002123,0.999216,0.002324,-0.039529,-0.002123,0.999985,0.005131,0.039540,-0.005043,0.999205,0.039529,-0.005131,-0.999205,-0.165093,0.007481,-0.023439,0.001521,0.000923,-0.000143,22.997280,27.460064,-1.000000,-1.000000,-1.000000
482149603.864231,0.131409,-0.013077,-0.999252,0.039573,0.005214,0.002136,0.999214,0.002341,-0.039562,-0.002136,0.999984,0.005214,0.039574,-0.005126,0.999204,0.039562,-0.005214,-0.999204,-0.107387,-0.006382,-0.006168,0.005211,0.003284,-0.001158,22.997280,27.460064,-1.000000,-1.000000,-1.000000
482149603.874547,0.227844,-0.004364,-1.033401,0.039573,0.005214,0.002136,0.999214,0.002341,-0.039562,-0.002136,0.999984,0.005214,0.039574,-0.005126,0.999204,0.039562,-0.005214,-0.999204,-0.107387,-0.006382,-0.006168,0.005211,0.003284,-0.001158,22.997280,27.460064,-1.000000,-1.000000,-1.000000
482149603.884293,0.227844,-0.004364,-1.033401,0.039587,0.005217,0.002150,0.999214,0.002355,-0.039576,-0.002150,0.999984,0.005217,0.039588,-0.005128,0.999203,0.039576,-0.005217,-0.999203,-0.107401,-0.006380,-0.006168,-0.003445,0.002158,0.001932,22.997280,27.460064,-1.000000,-1.000000,-1.000000
482149603.894109,0.170197,-0.019058,-1.047363,0.039599,0.005250,0.002152,0.999213,0.002358,-0.039588,-0.002152,0.999984,0.005250,0.039599,-0.005161,0.999202,0.039588,-0.005250,-0.999202,0.091821,-0.007827,-0.000050,-0.003578,-0.001401,0.004323,22.997280,27.460064,-1.000000,-1.000000,-1.000000
482149603.904835,0.101425,-0.009567,-1.006927,0.039599,0.005250,0.002152,0.999213,0.002358,-0.039588,-0.002152,0.999984,0.005250,0.039599,-0.005161,0.999202,0.039588,-0.005250,-0.999202,0.091821,-0.007827,-0.000050,-0.003578,-0.001401,0.004323,22.997280,27.460064,-1.000000,-1.000000,-1.000000
482149603.913990,0.147964,-0.013046,-1.014771,0.039645,0.005286,0.002160,0.999211,0.002368,-0.039634,-0.002160,0.999984,0.005286,0.039646,-0.005196,0.999200,0.039634,-0.005286,-0.999200,0.188210,0.000922,-0.034201,0.008852,0.004471,-0.001001,22.997280,27.460064,-1.000000,-1.000000,-1.000000
482149603.924165,0.019638,-0.004959,-1.038116,0.039647,0.005257,0.002231,0.999211,0.002438,-0.039636,-0.002231,0.999984,0.005257,0.039648,-0.005165,0.999200,0.039636,-0.005257,-0.999200,0.061789,-0.004310,-0.007727,0.000129,0.002162,0.003275,22.997280,27.460064,-1.000000,-1.000000,-1.000000
482149603.934130,-0.119644,-0.012497,-1.029846,0.039672,0.005222,0.002201,0.999210,0.002407,-0.039661,-0.002201,0.999984,0.005222,0.039673,-0.005130,0.999200,0.039661,-0.005222,-0.999200,0.061764,-0.004345,-0.007728,-0.006648,0.000925,-0.005285,22.997280,27.460064,-1.000000,-1.000000,-1.000000
482149603.944167,-0.144852,-0.013855,-1.037170,0.039672,0.005222,0.002201,0.999210,0.002407,-0.039661,-0.002201,0.999984,0.005222,0.039673,-0.005130,0.999200,0.039661,-0.005222,-0.999200,0.061764,-0.004345,-0.007728,-0.006648,0.000925,-0.005285,22.997280,27.460064,-1.000000,-1.000000,-1.000000
482149603.954125,-0.083817,-0.007385,-1.053986,0.039640,0.005205,0.002208,0.999212,0.002413,-0.039629,-0.002208,0.999984,0.005205,0.039641,-0.005114,0.999201,0.039629,-0.005205,-0.999201,-0.019991,0.000246,-0.038916,-0.000675,-0.003864,-0.003735,22.997280,27.460064,-1.000000,-1.000000,-1.000000
482149603.964115,-0.055450,-0.015732,-1.036652,0.039615,0.005203,0.002201,0.999213,0.002405,-0.039605,-0.002201,0.999984,0.005203,0.039616,-0.005112,0.999202,0.039605,-0.005203,-0.999202,-0.159249,-0.007294,-0.030644,-0.000876,-0.002639,-0.000238,22.997280,27.460064,-1.000000,-1.000000,-1.000000
482149603.974073,0.097580,-0.016800,-1.030365,0.039611,0.005219,0.002240,0.999213,0.002445,-0.039600,-0.002240,0.999984,0.005219,0.039612,-0.005126,0.999202,0.039600,-0.005219,-0.999202,-0.123417,-0.002166,-0.054784,-0.004634,0.000978,0.001869,22.997280,27.460064,-1.000000,-1.000000,-1.000000
482149603.984288,0.230560,-0.001099,-1.009018,0.039611,0.005219,0.002240,0.999213,0.002445,-0.039600,-0.002240,0.999984,0.005219,0.039612,-0.005126,0.999202,0.039600,-0.005219,-0.999202,-0.123417,-0.002166,-0.054784,-0.004634,0.000978,0.001869,22.997280,27.460064,-1.000000,-1.000000,-1.000000
482149603.994131,0.230560,-0.001099,-1.009018,0.039625,0.005228,0.002211,0.999212,0.002417,-0.039614,-0.002211,0.999984,0.005228,0.039626,-0.005137,0.999201,0.039614,-0.005228,-0.999201,-0.123430,-0.002157,-0.054784,0.002881,-0.000289,-0.002424,22.997280,27.460064,-1.000000,-1.000000,-1.000000
482149604.003918,0.230865,-0.015091,-1.021439,0.039593,0.005272,0.002251,0.999213,0.002458,-0.039582,-0.002251,0.999984,0.005272,0.039594,-0.005179,0.999202,0.039582,-0.005272,-0.999202,0.057998,-0.011528,-0.031163,-0.005842,-0.001404,0.001838,22.997280,27.460064,-1.000000,-1.000000,-1.000000
482149604.014257,0.134171,-0.003662,-1.046814,0.039593,0.005272,0.002251,0.999213,0.002458,-0.039582,-0.002251,0.999984,0.005272,0.039594,-0.005179,0.999202,0.039582,-0.005272,-0.999202,0.057998,-0.011528,-0.031163,-0.005842,-0.001404,0.001838,22.997280,27.460064,-1.000000,-1.000000,-1.000000
482149604.024119,0.144653,-0.023773,-0.994431,0.039602,0.005247,0.002281,0.999213,0.002487,-0.039591,-0.002281,0.999984,0.005247,0.039603,-0.005153,0.999202,0.039591,-0.005247,-0.999202,0.190970,0.004148,-0.009816,-0.002286,0.000979,0.003166,22.997280,27.460064,-1.000000,-1.000000,-1.000000
482149604.034115,-0.044708,-0.005066,-1.067215,0.039586,0.005235,0.002347,0.999213,0.002552,-0.039575,-0.002347,0.999984,0.005235,0.039588,-0.005138,0.999203,0.039575,-0.005235,-0.999203,0.094595,0.001573,-0.047611,0.000130,-0.000226,0.003307,22.997280,27.460064,-1.000000,-1.000000,-1.000000
482149604.044150,-0.093460,-0.021255,-1.045654,0.039578,0.005289,0.002313,0.999214,0.002521,-0.039567,-0.002313,0.999983,0.005289,0.039580,-0.005193,0.999203,0.039567,-0.005289,-0.999203,0.094603,0.001626,-0.047611,0.004290,-0.001518,-0.005859,22.997280,27.460064,-1.000000,-1.000000,-1.000000
482149604.054165,-0.117294,0.000366,-1.030838,0.039578,0.005289,0.002313,0.999214,0.002521,-0.039567,-0.002313,0.999983,0.005289,0.039580,-0.005193,0.999203,0.039567,-0.005289,-0.999203,0.094603,0.001626,-0.047611,0.004290,-0.001518,-0.005859,22.997280,27.460064,-1.000000,-1.000000,-1.000000
482149604.064143,-0.057541,-0.015533,-1.015411,0.039579,0.005256,0.002276,0.999214,0.002482,-0.039568,-0.002276,0.999984,0.005256,0.039581,-0.005162,0.999203,0.039568,-0.005256,-0.999203,-0.084276,0.000190,-0.068012,0.007463,-0.000258,0.002495,22.997280,27.460064,-1.000000,-1.000000,-1.000000
482149604.074137,-0.114456,-0.013657,-1.053802,0.039555,0.005221,0.002258,0.999215,0.002462,-0.039544,-0.002258,0.999984,0.005221,0.039556,-0.005128,0.999204,0.039544,-0.005221,-0.999204,-0.133004,-0.016035,-0.046450,-0.006829,-0.005003,-0.001709,22.997280,27.460064,-1.000000,-1.000000,-1.000000
482149604.084466,0.115082,-0.009796,-1.042038,0.039528,0.005223,0.002183,0.999216,0.002388,-0.039517,-0.002183,0.999984,0.005223,0.039529,-0.005132,0.999205,0.039517,-0.005223,-0.999205,-0.097058,-0.010311,-0.016206,-0.002871,-0.001490,-0.007425,22.997280,27.460064,-1.000000,-1.000000,-1.000000
482149604.094042,0.115082,-0.009796,-1.042038,0.039528,0.005223,0.002183,0.999216,0.002388,-0.039517,-0.002183,0.999984,0.005223,0.039529,-0.005132,0.999205,0.039517,-0.005223,-0.999205,-0.097058,-0.010311,-0.016206,-0.002871,-0.001490,-0.007425,22.997280,27.460064,-1.000000,-1.000000,-1.000000
482149604.104210,0.255997,-0.001968,-1.025925,0.039493,0.005220,0.002192,0.999217,0.002397,-0.039482,-0.002192,0.999984,0.005220,0.039494,-0.005130,0.999207,0.039482,-0.005220,-0.999207,-0.097023,-0.010313,-0.016205,0.001492,-0.005018,0.001073,22.997280,27.460064,-1.000000,-1.000000,-1.000000
482149604.114121,0.214844,-0.002090,-0.991486,0.039467,0.005187,0.002198,0.999218,0.002401,-0.039456,-0.002198,0.999984,0.005187,0.039468,-0.005097,0.999208,0.039456,-0.005187,-0.999208,0.075626,-0.004609,-0.042830,-0.013137,-0.002548,0.002630,22.997280,27.460064,-1.000000,-1.000000,-1.000000
482149604.124171,0.131104,-0.002487,-1.025635,0.039467,0.005187,0.002198,0.999218,0.002401,-0.039456,-0.002198,0.999984,0.005187,0.039468,-0.005097,0.999208,0.039456,-0.005187,-0.999208,0.075626,-0.004609,-0.042830,-0.013137,-0.002548,0.002630,22.997280,27.460064,-1.000000,-1.000000,-1.000000
482149604.134114,0.146790,-0.015213,-1.030365,0.039470,0.005174,0.002201,0.999218,0.002404,-0.039459,-0.002201,0.999984,0.005174,0.039471,-0.005083,0.999208,0.039459,-0.005174,-0.999208,0.216537,0.003205,-0.026717,0.005114,0.000935,0.001182,22.997280,27.460064,-1.000000,-1.000000,-1.000000
482149604.143513,-0.019318,-0.000336,-1.024963,0.039455,0.005142,0.002164,0.999219,0.002365,-0.039444,-0.002164,0.999984,0.005142,0.039455,-0.005052,0.999209,0.039444,-0.005142,-0.999209,0.091660,0.002655,-0.026426,-0.005689,-0.000224,-0.000539,22.997280,27.460064,-1.000000,-1.000000,-1.000000
482149604.154190,-0.058838,-0.011719,-1.026199,0.039447,0.005145,0.002184,0.999219,0.002385,-0.039436,-0.002184,0.999984,0.005145,0.039448,-0.005054,0.999209,0.039436,-0.005145,-0.999209,0.091667,0.002657,-0.026426,0.001558,-0.001448,-0.000146,22.997280,27.460064,-1.000000,-1.000000,-1.000000
482149604.164130,-0.056259,0.003082,-1.031128,0.039447,0.005145,0.002184,0.999219,0.002385,-0.039436,-0.002184,0.999984,0.005145,0.039448,-0.005054,0.999209,0.039436,-0.005145,-0.999209,0.091667,0.002657,-0.026426,0.001558,-0.001448,-0.000146,22.997280,27.460064,-1.000000,-1.000000,-1.000000
482149604.174206,-0.032883,-0.011475,-1.033401,0.039454,0.005112,0.002173,0.999219,0.002373,-0.039443,-0.002173,0.999985,0.005112,0.039454,-0.005022,0.999209,0.039443,-0.005112,-0.999209,-0.058760,0.004776,-0.025755,0.004040,0.000919,-0.001223,22.997280,27.460064,-1.000000,-1.000000,-1.000000
482149604.184071,-0.104675,-0.001404,-1.029099,0.039462,0.005087,0.002181,0.999219,0.002380,-0.039452,-0.002181,0.999985,0.005087,0.039463,-0.004997,0.999209,0.039452,-0.005087,-0.999209,-0.098289,-0.006632,-0.026991,-0.002200,-0.000218,0.001992,22.997280,27.460064,-1.000000,-1.000000,-1.000000
482149604.194078,0.048706,-0.007309,-1.013031,0.039480,0.005043,0.002171,0.999218,0.002368,-0.039469,-0.002171,0.999985,0.005043,0.039481,-0.004954,0.999208,0.039469,-0.005043,-0.999208,-0.072352,-0.006431,-0.034193,-0.003208,0.003337,-0.001632,22.997280,27.460064,-1.000000,-1.000000,-1.000000
482149604.204010,0.048706,-0.007309,-1.013031,0.039480,0.005043,0.002171,0.999218,0.002368,-0.039469,-0.002171,0.999985,0.005043,0.039481,-0.004954,0.999208,0.039469,-0.005043,-0.999208,-0.072352,-0.006431,-0.034193,-0.003208,0.003337,-0.001632,22.997280,27.460064,-1.000000,-1.000000,-1.000000
482149604.214101,0.178391,-0.002731,-1.009186,0.039478,0.005057,0.002185,0.999218,0.002383,-0.039467,-0.002185,0.999985,0.005057,0.039478,-0.004967,0.999208,0.039467,-0.005057,-0.999208,-0.072350,-0.006417,-0.034193,0.001423,-0.000233,0.002181,22.997280,27.460064,-1.000000,-1.000000,-1.000000
482149604.224019,0.292633,-0.007339,-1.013947,0.039495,0.005070,0.002159,0.999217,0.002357,-0.039484,-0.002159,0.999985,0.005070,0.039496,-0.004980,0.999207,0.039484,-0.005070,-0.999207,0.009222,-0.002239,-0.013824,-0.003409,0.003368,0.001882,22.997280,27.460064,-1.000000,-1.000000,-1.000000
482149604.234213,0.195969,-0.008652,-1.027496,0.039495,0.005070,0.002159,0.999217,0.002357,-0.039484,-0.002159,0.999985,0.005070,0.039496,-0.004980,0.999207,0.039484,-0.005070,-0.999207,0.009222,-0.002239,-0.013824,-0.003409,0.003368,0.001882,22.997280,27.460064,-1.000000,-1.000000,-1.000000
482149604.243420,0.135864,-0.004395,-1.023376,0.039498,0.005056,0.002140,0.999217,0.002338,-0.039487,-0.002140,0.999985,0.005056,0.039499,-0.004968,0.999207,0.039487,-0.005056,-0.999207,0.138903,0.002325,-0.009979,-0.000590,-0.001479,-0.004957,22.997280,27.460064,-1.000000,-1.000000,-1.000000
482149604.254085,-0.086441,-0.009064,-1.024017,0.039488,0.005023,0.002173,0.999218,0.002370,-0.039478,-0.002173,0.999985,0.005023,0.039489,-0.004933,0.999208,0.039478,-0.005023,-0.999208,0.156491,-0.003629,-0.028289,0.000082,-0.003788,0.004508,22.997280,27.460064,-1.000000,-1.000000,-1.000000
482149604.264018,-0.110901,-0.012161,-1.008926,0.039470,0.005059,0.002188,0.999218,0.002386,-0.039459,-0.002188,0.999985,0.005059,0.039470,-0.004969,0.999208,0.039459,-0.005059,-0.999208,0.156510,-0.003593,-0.028288,0.001692,-0.002662,-0.002473,22.997280,27.460064,-1.000000,-1.000000,-1.000000
482149604.274061,-0.115021,0.003143,-1.054047,0.039470,0.005059,0.002188,0.999218,0.002386,-0.039459,-0.002188,0.999985,0.005059,0.039470,-0.004969,0.999208,0.039459,-0.005059,-0.999208,0.156510,-0.003593,-0.028288,0.001692,-0.002662,-0.002473,22.997280,27.460064,-1.000000,-1.000000,-1.000000
482149604.284090,-0.053268,-0.019348,-1.005402,0.039427,0.005049,0.002184,0.999220,0.002381,-0.039416,-0.002184,0.999985,0.005049,0.039427,-0.004959,0.999210,0.039416,-0.005049,-0.999210,-0.125857,-0.004015,-0.024807,0.002699,-0.003829,0.001120,22.997280,27.460064,-1.000000,-1.000000,-1.000000
482149604.293423,-0.100052,0.011429,-1.035782,0.039425,0.005040,0.002208,0.999220,0.002405,-0.039414,-0.002208,0.999985,0.005040,0.039425,-0.004949,0.999210,0.039414,-0.005040,-0.999210,-0.150315,-0.007121,-0.009716,0.000081,0.000987,0.004445,22.997280,27.460064,-1.000000,-1.000000,-1.000000
482149604.303900,0.091492,-0.005707,-1.003662,0.039426,0.005030,0.002193,0.999220,0.002389,-0.039415,-0.002193,0.999985,0.005030,0.039426,-0.004940,0.999210,0.039415,-0.005030,-0.999210,-0.092683,-0.014318,-0.006191,0.003905,0.002133,0.001103,22.997280,27.460064,-1.000000,-1.000000,-1.000000
482149604.313641,0.091492,-0.005707,-1.003662,0.039426,0.005030,0.002193,0.999220,0.002389,-0.039415,-0.002193,0.999985,0.005030,0.039426,-0.004940,0.999210,0.039415,-0.005030,-0.999210,-0.092683,-0.014318,-0.006191,0.003905,0.002133,0.001103,22.997280,27.460064,-1.000000,-1.000000,-1.000000
482149604.324038,0.239166,0.003235,-0.984268,0.039423,0.005028,0.002196,0.999220,0.002392,-0.039413,-0.002196,0.999985,0.005028,0.039424,-0.004937,0.999210,0.039413,-0.005028,-0.999210,-0.092681,-0.014321,-0.006191,-0.004549,-0.001412,0.000711,22.997280,27.460064,-1.000000,-1.000000,-1.000000
482149604.334096,0.265427,-0.003769,-1.018524,0.039403,0.005033,0.002262,0.999221,0.002458,-0.039392,-0.002262,0.999985,0.005033,0.039404,-0.004940,0.999211,0.039392,-0.005033,-0.999211,0.052100,-0.000674,-0.004451,-0.004414,-0.003820,-0.001600,22.997280,27.460064,-1.000000,-1.000000,-1.000000
482149604.344131,0.215179,-0.003357,-1.016693,0.039403,0.005033,0.002262,0.999221,0.002458,-0.039392,-0.002262,0.999985,0.005033,0.039404,-0.004940,0.999211,0.039392,-0.005033,-0.999211,0.052100,-0.000674,-0.004451,-0.004414,-0.003820,-0.001600,22.997280,27.460064,-1.000000,-1.000000,-1.000000
482149604.354034,0.163727,-0.005707,-0.993530,0.039428,0.005019,0.002259,0.999220,0.002455,-0.039417,-0.002259,0.999985,0.005019,0.039429,-0.004926,0.999210,0.039417,-0.005019,-0.999210,0.199749,0.008254,0.014942,-0.000860,0.002143,-0.000320,22.997280,27.460064,-1.000000,-1.000000,-1.000000
482149604.364093,0.087738,0.001190,-1.003998,0.039396,0.005058,0.002288,0.999221,0.002485,-0.039385,-0.002288,0.999985,0.005058,0.039397,-0.004964,0.999211,0.039385,-0.005058,-0.999211,0.175794,0.001701,-0.017482,-0.004617,0.002180,0.001835,22.997280,27.460064,-1.000000,-1.000000,-1.000000
482149604.373213,-0.078781,0.006775,-1.031525,0.039383,0.005072,0.002297,0.999222,0.002495,-0.039372,-0.002297,0.999985,0.005072,0.039384,-0.004978,0.999212,0.039372,-0.005072,-0.999212,0.124355,-0.000635,0.005681,0.003906,-0.001447,0.001151,22.997280,27.460064,-1.000000,-1.000000,-1.000000
482149604.384031,-0.188217,-0.008224,-1.014572,0.039383,0.005072,0.002297,0.999222,0.002495,-0.039372,-0.002297,0.999985,0.005072,0.039384,-0.004978,0.999212,0.039372,-0.005072,-0.999212,0.124355,-0.000635,0.005681,0.003906,-0.001447,0.001151,22.997280,27.460064,-1.000000,-1.000000,-1.000000
482149604.394024,-0.153748,0.008698,-1.044800,0.039362,0.005066,0.002373,0.999222,0.002571,-0.039351,-0.002373,0.999984,0.005066,0.039364,-0.004969,0.999213,0.039351,-0.005066,-0.999213,0.048387,0.006256,-0.004785,-0.001261,-0.001374,0.006756,22.997280,27.460064,-1.000000,-1.000000,-1.000000
482149604.403532,-0.071732,-0.011658,-1.005615,0.039355,0.005040,0.002435,0.999222,0.002632,-0.039344,-0.002435,0.999984,0.005040,0.039357,-0.004940,0.999213,0.039344,-0.005040,-0.999213,-0.118125,0.011815,-0.032312,-0.009849,-0.001317,0.008658,22.997280,27.460064,-1.000000,-1.000000,-1.000000
482149604.414093,-0.083435,0.007874,-1.017242,0.039394,0.005073,0.002468,0.999221,0.002666,-0.039383,-0.002468,0.999984,0.005073,0.039396,-0.004972,0.999211,0.039383,-0.005073,-0.999211,-0.193131,0.013771,-0.045589,0.002831,0.002117,-0.001302,22.997280,27.460064,-1.000000,-1.000000,-1.000000
482149604.424092,0.263702,-0.008575,-1.006927,0.039394,0.005073,0.002468,0.999221,0.002666,-0.039383,-0.002468,0.999984,0.005073,0.039396,-0.004972,0.999211,0.039383,-0.005073,-0.999211,-0.193131,0.013771,-0.045589,0.002831,0.002117,-0.001302,22.997280,27.460064,-1.000000,-1.000000,-1.000000
482149604.433562,0.233002,-0.017090,-1.025177,0.039370,0.005038,0.002466,0.999222,0.002662,-0.039359,-0.002466,0.999984,0.005038,0.039372,-0.004937,0.999212,0.039359,-0.005038,-0.999212,-0.111091,-0.006620,-0.006403,-0.003315,-0.002596,0.000764,22.997280,27.460064,-1.000000,-1.000000,-1.000000
482149604.443972,0.233002,-0.017090,-1.025177,0.039361,0.004961,0.002487,0.999222,0.002680,-0.039350,-0.002487,0.999985,0.004961,0.039363,-0.004859,0.999213,0.039350,-0.004961,-0.999213,-0.122785,0.012834,-0.018029,-0.013179,-0.002524,0.003775,22.997280,27.460064,-1.000000,-1.000000,-1.000000
482149604.454259,0.200729,-0.003403,-1.003967,0.039361,0.004961,0.002487,0.999222,0.002680,-0.039350,-0.002487,0.999985,0.004961,0.039363,-0.004859,0.999213,0.039350,-0.004961,-0.999213,-0.122785,0.012834,-0.018029,-0.013179,-0.002524,0.003775,22.997280,27.460064,-1.000000,-1.000000,-1.000000
482149604.464109,0.186462,-0.000473,-0.993210,0.039370,0.004920,0.002484,0.999222,0.002676,-0.039359,-0.002484,0.999985,0.004920,0.039372,-0.004818,0.999213,0.039359,-0.004920,-0.999213,0.224343,-0.003656,-0.007714,-0.003048,0.002136,-0.003985,22.997280,27.460064,-1.000000,-1.000000,-1.000000
482149604.474130,0.067841,-0.001190,-1.018753,0.039365,0.004899,0.002468,0.999222,0.002659,-0.039355,-0.002468,0.999985,0.004899,0.039367,-0.004798,0.999213,0.039355,-0.004899,-0.999213,0.161375,0.001496,-0.004754,-0.004724,-0.000172,0.004183,22.997280,27.460064,-1.000000,-1.000000,-1.000000
482149604.484119,-0.097824,-0.002335,-1.028671,0.039375,0.004857,0.002502,0.999221,0.002692,-0.039364,-0.002502,0.999985,0.004857,0.039377,-0.004755,0.999213,0.039364,-0.004857,-0.999213,0.147098,0.004384,0.006003,-0.004657,-0.000183,0.003011,22.997280,27.460064,-1.000000,-1.000000,-1.000000
482149604.494075,-0.215485,-0.009598,-1.020065,0.039375,0.004857,0.002502,0.999221,0.002692,-0.039364,-0.002502,0.999985,0.004857,0.039377,-0.004755,0.999213,0.039364,-0.004857,-0.999213,0.147098,0.004384,0.006003,-0.004657,-0.000183,0.003011,22.997280,27.460064,-1.000000,-1.000000,-1.000000
482149604.503702,-0.119263,-0.006622,-1.034775,0.039310,0.004792,0.002470,0.999224,0.002657,-0.039300,-0.002470,0.999985,0.004792,0.039312,-0.004691,0.999216,0.039300,-0.004792,-0.999216,0.028541,0.003602,-0.019537,0.005209,-0.007417,0.000095,22.997280,27.460064,-1.000000,-1.000000,-1.000000
482149604.514068,-0.066864,-0.006027,-1.039398,0.039286,0.004756,0.002462,0.999225,0.002647,-0.039276,-0.002462,0.999986,0.004756,0.039288,-0.004656,0.999217,0.039276,-0.004756,-0.999217,-0.137100,0.002422,-0.029454,-0.007005,-0.003764,0.001762,22.997280,27.460064,-1.000000,-1.000000,-1.000000
482149604.524306,-0.047379,-0.004562,-1.016876,0.039286,0.004756,0.002462,0.999225,0.002647,-0.039276,-0.002462,0.999986,0.004756,0.039288,-0.004656,0.999217,0.039276,-0.004756,-0.999217,-0.137100,0.002422,-0.029454,-0.007005,-0.003764,0.001762,22.997280,27.460064,-1.000000,-1.000000,-1.000000
482149604.534116,0.117065,-0.009354,-1.005005,0.039249,0.004725,0.002447,0.999226,0.002630,-0.039239,-0.002447,0.999986,0.004725,0.039251,-0.004625,0.999219,0.039239,-0.004725,-0.999219,-0.158501,-0.001898,-0.035556,-0.001706,-0.000277,-0.006233,22.997280,27.460064,-1.000000,-1.000000,-1.000000
482149604.544018,0.261841,-0.004089,-1.044006,0.039275,0.004690,0.002411,0.999225,0.002593,-0.039264,-0.002411,0.999986,0.004690,0.039276,-0.004591,0.999218,0.039264,-0.004690,-0.999218,-0.106128,-0.001338,-0.040180,-0.008014,0.002177,-0.001894,0.000000,0.000000,-1.000000,-1.000000,-1.000000
482149604.554158,0.261841,-0.004089,-1.044006,0.039254,0.004623,0.002443,0.999226,0.002623,-0.039244,-0.002443,0.999986,0.004623,0.039255,-0.004524,0.999219,0.039244,-0.004623,-0.999219,-0.086622,0.000061,-0.017657,-0.004657,-0.001377,0.003027,0.000000,0.000000,-1.000000,-1.000000,-1.000000
482149604.564021,0.179153,-0.009628,-1.008087,0.039254,0.004623,0.002443,0.999226,0.002623,-0.039244,-0.002443,0.999986,0.004623,0.039255,-0.004524,0.999219,0.039244,-0.004623,-0.999219,-0.086622,0.000061,-0.017657,-0.004657,-0.001377,0.003027,0.000000,0.000000,-1.000000,-1.000000,-1.000000
482149604.574152,0.130539,-0.012543,-1.038162,0.039224,0.004583,0.002424,0.999227,0.002602,-0.039214,-0.002424,0.999987,0.004583,0.039225,-0.004484,0.999220,0.039214,-0.004583,-0.999220,0.077852,-0.004771,-0.005785,-0.001953,-0.002670,-0.001522,23.374889,27.837673,-1.000000,-1.000000,-1.000000
482149604.584141,-0.049667,-0.005707,-1.029633,0.039230,0.004563,0.002386,0.999227,0.002564,-0.039220,-0.002386,0.999987,0.004563,0.039231,-0.004465,0.999220,0.039220,-0.004563,-0.999220,0.139934,-0.005066,-0.008867,-0.004301,-0.002670,-0.002819,23.374889,27.837673,-1.000000,-1.000000,-1.000000
482149604.594130,-0.120087,-0.013397,-1.022110,0.039183,0.004556,0.002336,0.999229,0.002513,-0.039173,-0.002336,0.999987,0.004556,0.039184,-0.004461,0.999222,0.039173,-0.004556,-0.999222,0.091366,-0.007987,-0.038940,0.001738,-0.003890,-0.002489,23.374889,27.837673,-1.000000,-1.000000,-1.000000
482149604.603406,-0.217117,0.001053,-1.039764,0.039183,0.004556,0.002336,0.999229,0.002513,-0.039173,-0.002336,0.999987,0.004556,0.039184,-0.004461,0.999222,0.039173,-0.004556,-0.999222,0.091366,-0.007987,-0.038940,0.001738,-0.003890,-0.002489,23.374889,27.837673,-1.000000,-1.000000,-1.000000
482149604.614120,-0.106262,-0.007080,-1.001907,0.039162,0.004602,0.002332,0.999230,0.002510,-0.039151,-0.002332,0.999987,0.004602,0.039162,-0.004507,0.999223,0.039151,-0.004602,-0.999223,-0.088819,-0.001105,-0.030410,0.006436,-0.005082,0.000121,23.374889,27.837673,-1.000000,-1.000000,-1.000000
482149604.624156,-0.081970,-0.004135,-1.031586,0.039148,0.004595,0.002318,0.999231,0.002496,-0.039138,-0.002318,0.999987,0.004595,0.039149,-0.004500,0.999223,0.039138,-0.004595,-0.999223,-0.159224,-0.008803,-0.022887,-0.000947,-0.000256,0.002023,23.379553,27.842339,-1.000000,-1.000000,-1.000000
482149604.634000,0.019287,-0.010071,-1.052628,0.039148,0.004595,0.002318,0.999231,0.002496,-0.039138,-0.002318,0.999987,0.004595,0.039149,-0.004500,0.999223,0.039138,-0.004595,-0.999223,-0.159224,-0.008803,-0.022887,-0.000947,-0.000256,0.002023,23.379553,27.842339,-1.000000,-1.000000,-1.000000
482149604.644105,0.195282,-0.017273,-1.000229,0.039148,0.004668,0.002352,0.999231,0.002533,-0.039138,-0.002352,0.999986,0.004668,0.039149,-0.004572,0.999223,0.039138,-0.004668,-0.999223,-0.145400,-0.002412,-0.002684,0.005093,-0.000282,0.002337,23.379553,27.842339,-1.000000,-1.000000,-1.000000
482149604.653852,0.195282,-0.017273,-1.000229,0.039140,0.004638,0.002354,0.999231,0.002534,-0.039130,-0.002354,0.999986,0.004638,0.039141,-0.004542,0.999223,0.039130,-0.004638,-0.999223,-0.121100,0.000503,-0.032362,-0.005578,0.002119,-0.001774,23.379553,27.842339,-1.000000,-1.000000,-1.000000
482149604.664196,0.342392,-0.005661,-1.006134,0.039141,0.004656,0.002360,0.999231,0.002541,-0.039130,-0.002360,0.999986,0.004656,0.039142,-0.004560,0.999223,0.039130,-0.004656,-0.999223,-0.019843,-0.005415,-0.053404,-0.000747,0.003293,-0.001538,23.379553,27.842339,-1.000000,-1.000000,-1.000000
482149604.674011,0.284790,-0.017166,-1.000687,0.039141,0.004656,0.002360,0.999231,0.002541,-0.039130,-0.002360,0.999986,0.004656,0.039142,-0.004560,0.999223,0.039130,-0.004656,-0.999223,-0.019843,-0.005415,-0.053404,-0.000747,0.003293,-0.001538,23.386120,27.848904,-1.000000,-1.000000,-1.000000
482149604.684205,0.130966,-0.003464,-1.023682,0.039144,0.004698,0.002364,0.999231,0.002546,-0.039133,-0.002364,0.999986,0.004698,0.039145,-0.004602,0.999223,0.039133,-0.004698,-0.999223,0.156149,-0.012575,-0.001006,0.006300,0.000907,0.002384,23.386120,27.848904,-1.000000,-1.000000,-1.000000
482149604.694149,0.096649,-0.010651,-1.010117,0.039072,0.004711,0.002338,0.999234,0.002520,-0.039062,-0.002338,0.999986,0.004711,0.039073,-0.004616,0.999226,0.039062,-0.004711,-0.999226,0.245728,-0.012455,-0.001461,-0.001886,-0.001487,-0.002709,23.386120,27.848904,-1.000000,-1.000000,-1.000000
482149604.704184,-0.169144,0.002899,-1.016479,0.039058,0.004760,0.002298,0.999234,0.002483,-0.039048,-0.002298,0.999986,0.004760,0.039059,-0.004666,0.999226,0.039048,-0.004760,-0.999226,0.091918,0.001296,-0.024456,0.007777,-0.002722,-0.002191,23.386120,27.848904,-1.000000,-1.000000,-1.000000
482149604.714114,-0.192871,-0.000778,-1.052826,0.039058,0.004760,0.002298,0.999234,0.002483,-0.039048,-0.002298,0.999986,0.004760,0.039059,-0.004666,0.999226,0.039048,-0.004760,-0.999226,0.091918,0.001296,-0.024456,0.007777,-0.002722,-0.002191,23.386120,27.848904,-1.000000,-1.000000,-1.000000
482149604.724123,-0.154282,-0.013077,-1.044540,0.039064,0.004773,0.002272,0.999234,0.002457,-0.039054,-0.002272,0.999986,0.004773,0.039065,-0.004680,0.999226,0.039054,-0.004773,-0.999226,0.057595,-0.005878,-0.010891,-0.003028,0.002088,-0.003991,23.386120,27.848904,-1.000000,-1.000000,-1.000000
482149604.734139,-0.145065,-0.003677,-1.010117,0.039067,0.004726,0.002296,0.999234,0.002478,-0.039057,-0.002296,0.999986,0.004726,0.039068,-0.004633,0.999226,0.039057,-0.004726,-0.999226,-0.208201,0.007625,-0.017254,-0.005979,-0.000205,0.005285,23.388697,27.851482,-1.000000,-1.000000,-1.000000
482149604.744096,0.044739,-0.011520,-1.032639,0.039067,0.004726,0.002296,0.999234,0.002478,-0.039057,-0.002296,0.999986,0.004726,0.039068,-0.004633,0.999226,0.039057,-0.004726,-0.999226,-0.208201,0.007625,-0.017254,-0.005979,-0.000205,0.005285,23.388697,27.851482,-1.000000,-1.000000,-1.000000
482149604.754181,0.238663,-0.009186,-1.035629,0.039063,0.004682,0.002311,0.999234,0.002493,-0.039052,-0.002311,0.999986,0.004682,0.039063,-0.004589,0.999226,0.039052,-0.004682,-0.999226,-0.193334,-0.008394,-0.045314,-0.001148,-0.001418,0.005553,23.388697,27.851482,-1.000000,-1.000000,-1.000000
482149604.764181,0.238663,-0.009186,-1.035629,0.039027,0.004681,0.002309,0.999235,0.002490,-0.039017,-0.002309,0.999986,0.004680,0.039028,-0.004587,0.999228,0.039017,-0.004680,-0.999228,-0.184082,0.001003,-0.010889,0.000665,-0.005099,-0.004878,23.388697,27.851482,-1.000000,-1.000000,-1.000000
482149604.774080,0.371460,-0.010971,-0.981995,0.039016,0.004689,0.002213,0.999236,0.002394,-0.039006,-0.002213,0.999987,0.004689,0.039016,-0.004599,0.999228,0.039006,-0.004689,-0.999228,0.005733,-0.006831,-0.033411,-0.002693,-0.000352,-0.009815,23.388697,27.851482,-1.000000,-1.000000,-1.000000
482149604.784086,0.292206,-0.009033,-0.988693,0.039016,0.004689,0.002213,0.999236,0.002394,-0.039006,-0.002213,0.999987,0.004689,0.039016,-0.004599,0.999228,0.039006,-0.004689,-0.999228,0.005733,-0.006831,-0.033411,-0.002693,-0.000352,-0.009815,23.394623,27.857407,-1.000000,-1.000000,-1.000000
482149604.794152,0.177719,-0.004990,-1.034454,0.038992,0.004660,0.002194,0.999237,0.002374,-0.038981,-0.002194,0.999987,0.004660,0.038992,-0.004571,0.999229,0.038981,-0.004660,-0.999229,0.199681,-0.004526,-0.036400,-0.001885,-0.006261,-0.002645,23.394623,27.857407,-1.000000,-1.000000,-1.000000
482149604.804275,0.084503,-0.014709,-1.005936,0.038998,0.004523,0.002165,0.999237,0.002340,-0.038988,-0.002165,0.999987,0.004523,0.038998,-0.004435,0.999229,0.038988,-0.004523,-0.999229,0.253218,-0.004511,0.010536,-0.009269,0.003339,-0.000807,23.394623,27.857407,-1.000000,-1.000000,-1.000000
482149604.814272,-0.111908,-0.000443,-1.021774,0.038998,0.004523,0.002165,0.999237,0.002340,-0.038988,-0.002165,0.999987,0.004523,0.038998,-0.004435,0.999229,0.038988,-0.004523,-0.999229,0.253218,-0.004511,0.010536,-0.009269,0.003339,-0.000807,23.394623,27.857407,-1.000000,-1.000000,-1.000000
482149604.824116,-0.240417,-0.014206,-1.052612,0.039001,0.004554,0.002158,0.999237,0.002334,-0.038990,-0.002158,0.999987,0.004554,0.039000,-0.004466,0.999229,0.038990,-0.004554,-0.999229,0.138729,-0.000436,-0.035225,0.005293,-0.000314,-0.001176,23.394623,27.857407,-1.000000,-1.000000,-1.000000
482149604.834143,-0.078766,0.000595,-1.052826,0.039028,0.004545,0.002131,0.999236,0.002306,-0.039018,-0.002131,0.999987,0.004545,0.039028,-0.004458,0.999228,0.039018,-0.004545,-0.999228,0.045485,-0.010165,-0.006707,-0.003029,0.003282,-0.004007,23.396030,27.858814,-1.000000,-1.000000,-1.000000
482149604.844132,-0.154541,-0.009247,-1.056259,0.038998,0.004532,0.002107,0.999237,0.002282,-0.038988,-0.002107,0.999987,0.004532,0.038998,-0.004447,0.999229,0.038988,-0.004532,-0.999229,-0.150896,0.004090,-0.022545,-0.003161,-0.003859,-0.001569,23.396030,27.858814,-1.000000,-1.000000,-1.000000
482149604.854329,0.062881,-0.017776,-0.988739,0.038998,0.004532,0.002107,0.999237,0.002282,-0.038988,-0.002107,0.999987,0.004532,0.038998,-0.004447,0.999229,0.038988,-0.004532,-0.999229,-0.150896,0.004090,-0.022545,-0.003161,-0.003859,-0.001569,23.396030,27.858814,-1.000000,-1.000000,-1.000000
482149604.864061,0.062881,-0.017776,-0.988739,0.038966,0.004551,0.002086,0.999238,0.002262,-0.038955,-0.002086,0.999987,0.004551,0.038965,-0.004466,0.999231,0.038955,-0.004551,-0.999231,-0.117721,0.005146,-0.053595,0.002811,-0.000293,-0.000131,23.396030,27.858814,-1.000000,-1.000000,-1.000000
482149604.874166,0.264160,0.004044,-1.028427,0.038985,0.004561,0.002029,0.999238,0.002206,-0.038974,-0.002029,0.999988,0.004561,0.038984,-0.004478,0.999230,0.038974,-0.004561,-0.999230,-0.193515,-0.004686,-0.057029,0.000596,-0.000315,-0.003770,23.396030,27.858814,-1.000000,-1.000000,-1.000000
482149604.884143,0.399582,-0.008972,-1.010422,0.038963,0.004602,0.002004,0.999239,0.002181,-0.038953,-0.002004,0.999987,0.004601,0.038962,-0.004520,0.999230,0.038953,-0.004601,-0.999230,0.023929,-0.013175,0.010491,-0.002021,-0.000273,-0.000382,23.406338,27.869122,-1.000000,-1.000000,-1.000000
482149604.894416,0.293365,-0.000122,-0.987778,0.038963,0.004602,0.002004,0.999239,0.002181,-0.038953,-0.002004,0.999987,0.004601,0.038962,-0.004520,0.999230,0.038953,-0.004601,-0.999230,0.023929,-0.013175,0.010491,-0.002021,-0.000273,-0.000382,23.406338,27.869122,-1.000000,-1.000000,-1.000000
482149604.904254,0.190750,-0.008453,-1.003525,0.038988,0.004606,0.001963,0.999238,0.002141,-0.038977,-0.001963,0.999987,0.004606,0.038987,-0.004526,0.999229,0.038977,-0.004606,-0.999229,0.225183,0.008649,-0.029198,0.002943,0.003267,-0.002522,23.406338,27.869122,-1.000000,-1.000000,-1.000000
482149604.914122,0.050812,-0.001541,-1.031418,0.039021,0.004645,0.002017,0.999236,0.002197,-0.039011,-0.002017,0.999987,0.004645,0.039020,-0.004563,0.999228,0.039011,-0.004645,-0.999228,0.254355,0.004523,0.011450,-0.001014,-0.000246,0.003194,23.406338,27.869122,-1.000000,-1.000000,-1.000000
482149604.924384,-0.133194,-0.005737,-1.030746,0.039002,0.004687,0.002026,0.999237,0.002207,-0.038991,-0.002026,0.999987,0.004687,0.039001,-0.004605,0.999229,0.038991,-0.004687,-0.999229,0.151759,-0.003766,-0.004296,0.007642,-0.001507,0.000136,23.406338,27.869122,-1.000000,-1.000000,-1.000000
482149604.934064,-0.253235,-0.005203,-1.029205,0.039002,0.004687,0.002026,0.999237,0.002207,-0.038991,-0.002026,0.999987,0.004687,0.039001,-0.004605,0.999229,0.038991,-0.004687,-0.999229,0.151759,-0.003766,-0.004296,0.007642,-0.001507,0.000136,23.411297,27.874081,-1.000000,-1.000000,-1.000000
482149604.944129,-0.220551,0.003891,-1.047760,0.038980,0.004628,0.002021,0.999238,0.002199,-0.038970,-0.002020,0.999987,0.004628,0.038980,-0.004545,0.999230,0.038970,-0.004628,-0.999230,0.011842,0.003086,-0.032188,0.005427,-0.001528,-0.003503,23.411297,27.874081,-1.000000,-1.000000,-1.000000
482149604.954174,-0.126221,-0.013412,-1.017609,0.038978,0.004604,0.002001,0.999238,0.002179,-0.038968,-0.002001,0.999987,0.004604,0.038977,-0.004522,0.999230,0.038968,-0.004604,-0.999230,-0.172161,-0.001134,-0.031517,-0.006786,0.000931,-0.001821,23.411297,27.874081,-1.000000,-1.000000,-1.000000
482149604.964164,-0.146103,0.008652,-1.058914,0.038978,0.004604,0.002001,0.999238,0.002179,-0.038968,-0.002001,0.999987,0.004604,0.038977,-0.004522,0.999230,0.038968,-0.004604,-0.999230,-0.172161,-0.001134,-0.031517,-0.006786,0.000931,-0.001821,23.411297,27.874081,-1.000000,-1.000000,-1.000000
482149604.974123,0.081024,-0.011856,-1.012955,0.038968,0.004499,0.002006,0.999238,0.002180,-0.038957,-0.002006,0.999988,0.004499,0.038967,-0.004418,0.999231,0.038957,-0.004499,-0.999231,-0.259508,0.008390,-0.048529,-0.002019,-0.007434,-0.000287,23.411297,27.874081,-1.000000,-1.000000,-1.000000
482149604.983582,0.081024,-0.011856,-1.012955,0.038954,0.004470,0.001971,0.999239,0.002143,-0.038944,-0.001971,0.999988,0.004470,0.038953,-0.004390,0.999231,0.038944,-0.004470,-0.999231,-0.165165,-0.008942,-0.018377,-0.001821,-0.000304,-0.003896,23.411297,27.874081,-1.000000,-1.000000,-1.000000
482149604.994216,0.244690,0.015091,-0.989914,0.039003,0.004571,0.001977,0.999237,0.002154,-0.038993,-0.001977,0.999988,0.004571,0.039002,-0.004491,0.999229,0.038993,-0.004571,-0.999229,-0.185096,0.013223,-0.059685,0.006366,0.000896,0.001213,23.425941,27.888725,-1.000000,-1.000000,-1.000000
482149605.004224,0.283173,-0.011505,-1.023209,0.039003,0.004571,0.001977,0.999237,0.002154,-0.038993,-0.001977,0.999988,0.004571,0.039002,-0.004491,0.999229,0.038993,-0.004571,-0.999229,-0.185096,0.013223,-0.059685,0.006366,0.000896,0.001213,23.425941,27.888725,-1.000000,-1.000000,-1.000000
482149605.014122,0.203812,-0.016098,-0.993912,0.039023,0.004608,0.001969,0.999236,0.002148,-0.039012,-0.001969,0.999987,0.004608,0.039022,-0.004528,0.999228,0.039012,-0.004608,-0.999228,0.042012,-0.007248,-0.013727,0.002742,0.002105,0.001008,23.425941,27.888725,-1.000000,-1.000000,-1.000000
482149605.024166,0.068817,-0.005173,-1.020584,0.039034,0.004610,0.001975,0.999236,0.002153,-0.039024,-0.001975,0.999987,0.004610,0.039033,-0.004529,0.999228,0.039024,-0.004610,-0.999228,0.244149,-0.006895,-0.023981,-0.005913,-0.000215,0.004114,23.425941,27.888725,-1.000000,-1.000000,-1.000000
482149605.034317,-0.080460,-0.003235,-1.041214,0.039034,0.004610,0.001975,0.999236,0.002153,-0.039024,-0.001975,0.999987,0.004610,0.039033,-0.004529,0.999228,0.039024,-0.004610,-0.999228,0.244149,-0.006895,-0.023981,-0.005913,-0.000215,0.004114,23.425941,27.888725,-1.000000,-1.000000,-1.000000
482149605.044127,-0.221603,-0.013794,-1.035934,0.039026,0.004608,0.001972,0.999236,0.002151,-0.039016,-0.001972,0.999987,0.004608,0.039025,-0.004527,0.999228,0.039016,-0.004608,-0.999228,0.164796,-0.011490,0.005316,0.001670,-0.005073,-0.001301,23.431904,27.894688,-1.000000,-1.000000,-1.000000
482149605.054197,-0.175369,-0.000732,-1.067337,0.038999,0.004526,0.001983,0.999237,0.002158,-0.038989,-0.001983,0.999988,0.004526,0.038998,-0.004445,0.999229,0.038989,-0.004526,-0.999229,0.029828,-0.000647,-0.021355,-0.001954,-0.001477,-0.001538,23.431904,27.894688,-1.000000,-1.000000,-1.000000
482149605.064127,-0.127197,-0.015442,-1.018600,0.038996,0.004591,0.001954,0.999237,0.002131,-0.038986,-0.001954,0.999988,0.004591,0.038995,-0.004511,0.999229,0.038986,-0.004591,-0.999229,-0.119446,0.001356,-0.041985,0.005293,-0.000314,-0.001177,23.431904,27.894688,-1.000000,-1.000000,-1.000000
482149605.074066,-0.115173,0.007339,-1.030792,0.038996,0.004591,0.001954,0.999237,0.002131,-0.038986,-0.001954,0.999988,0.004591,0.038995,-0.004511,0.999229,0.038986,-0.004591,-0.999229,-0.119446,0.001356,-0.041985,0.005293,-0.000314,-0.001177,23.431904,27.894688,-1.000000,-1.000000,-1.000000
482149605.084194,0.105469,-0.011734,-1.028992,0.039002,0.004536,0.001986,0.999237,0.002161,-0.038992,-0.001986,0.999988,0.004536,0.039002,-0.004455,0.999229,0.038992,-0.004536,-0.999229,-0.214361,0.003804,-0.068108,0.001602,0.000906,-0.000210,23.431904,27.894688,-1.000000,-1.000000,-1.000000
482149605.094157,0.105469,-0.011734,-1.028992,0.038978,0.004523,0.001967,0.999238,0.002142,-0.038968,-0.001967,0.999988,0.004523,0.038977,-0.004443,0.999230,0.038968,-0.004523,-0.999230,-0.166165,-0.010919,-0.019370,-0.004370,-0.001467,-0.001663,23.438427,27.901211,-1.000000,-1.000000,-1.000000
482149605.104185,0.235031,0.006973,-0.997208,0.039016,0.004559,0.001913,0.999237,0.002090,-0.039006,-0.001913,0.999988,0.004559,0.039015,-0.004481,0.999229,0.039006,-0.004559,-0.999229,-0.154179,0.011898,-0.031564,-0.003230,0.002119,-0.000477,23.438427,27.901211,-1.000000,-1.000000,-1.000000
482149605.114108,0.276001,-0.014114,-0.981827,0.039016,0.004559,0.001913,0.999237,0.002090,-0.039006,-0.001913,0.999988,0.004559,0.039015,-0.004481,0.999229,0.039006,-0.004559,-0.999229,-0.154179,0.011898,-0.031564,-0.003230,0.002119,-0.000477,23.438427,27.901211,-1.000000,-1.000000,-1.000000
482149605.124188,0.290344,-0.000748,-1.042343,0.039008,0.004545,0.001938,0.999237,0.002113,-0.038998,-0.001938,0.999988,0.004545,0.039007,-0.004466,0.999229,0.038998,-0.004545,-0.999229,0.066471,-0.007189,-0.029763,0.001602,-0.001482,-0.000178,23.438427,27.901211,-1.000000,-1.000000,-1.000000
482149605.134118,0.225876,-0.022888,-1.005112,0.038965,0.004542,0.001912,0.999239,0.002087,-0.038955,-0.001911,0.999988,0.004542,0.038964,-0.004464,0.999231,0.038955,-0.004542,-0.999231,0.237046,-0.009573,0.017404,-0.007927,-0.000268,-0.003039,23.438427,27.901211,-1.000000,-1.000000,-1.000000
482149605.144208,0.014069,-0.002899,-1.024872,0.038965,0.004542,0.001912,0.999239,0.002087,-0.038955,-0.001911,0.999988,0.004542,0.038964,-0.004464,0.999231,0.038955,-0.004542,-0.999231,0.237046,-0.009573,0.017404,-0.007927,-0.000268,-0.003039,23.441248,27.904034,-1.000000,-1.000000,-1.000000
482149605.154156,-0.295792,-0.004883,-1.042450,0.039001,0.004556,0.001903,0.999237,0.002079,-0.038990,-0.001903,0.999988,0.004556,0.038999,-0.004479,0.999229,0.038990,-0.004556,-0.999229,0.251354,0.003809,-0.043114,0.006498,0.004455,-0.001177,23.441248,27.904034,-1.000000,-1.000000,-1.000000
482149605.164120,-0.182129,-0.002396,-1.033722,0.038995,0.004580,0.001888,0.999238,0.002065,-0.038985,-0.001888,0.999988,0.004580,0.038994,-0.004503,0.999229,0.038985,-0.004580,-0.999229,0.186891,-0.018308,-0.005882,0.008915,0.002058,-0.001020,23.441248,27.904034,-1.000000,-1.000000,-1.000000
482149605.174145,-0.182892,-0.000488,-1.036713,0.039003,0.004623,0.001869,0.999237,0.002048,-0.038993,-0.001869,0.999988,0.004623,0.039002,-0.004546,0.999229,0.038993,-0.004623,-0.999229,-0.024924,0.001724,-0.025643,0.001602,-0.000288,-0.000194,23.441248,27.904034,-1.000000,-1.000000,-1.000000
482149605.184167,-0.111908,-0.008209,-1.007095,0.039003,0.004623,0.001869,0.999237,0.002048,-0.038993,-0.001869,0.999988,0.004623,0.039002,-0.004546,0.999229,0.038993,-0.004623,-0.999229,-0.024924,0.001724,-0.025643,0.001602,-0.000288,-0.000194,23.441248,27.904034,-1.000000,-1.000000,-1.000000
482149605.194163,0.122253,-0.007385,-1.009598,0.038965,0.004587,0.001800,0.999239,0.001977,-0.038955,-0.001800,0.999988,0.004587,0.038964,-0.004513,0.999230,0.038955,-0.004587,-0.999230,-0.221084,0.002191,-0.034491,-0.001081,-0.005010,0.004429,23.441248,27.904034,-1.000000,-1.000000,-1.000000
482149605.204041,0.122253,-0.007385,-1.009598,0.038974,0.004501,0.001828,0.999239,0.002002,-0.038964,-0.001828,0.999988,0.004501,0.038972,-0.004426,0.999231,0.038964,-0.004501,-0.999231,-0.221856,0.004012,-0.037482,-0.011752,0.002166,0.000254,23.444454,27.907238,-1.000000,-1.000000,-1.000000
482149605.214116,0.306870,-0.004272,-1.021881,0.038986,0.004478,0.001914,0.999238,0.002087,-0.038976,-0.001914,0.999988,0.004478,0.038985,-0.004400,0.999230,0.038976,-0.004478,-0.999230,-0.150884,-0.003731,-0.007865,-0.002492,0.003382,0.007768,23.444454,27.907238,-1.000000,-1.000000,-1.000000
482149605.224194,0.295502,-0.017227,-1.017532,0.038986,0.004478,0.001914,0.999238,0.002087,-0.038976,-0.001914,0.999988,0.004478,0.038985,-0.004400,0.999230,0.038976,-0.004478,-0.999230,-0.150884,-0.003731,-0.007865,-0.002492,0.003382,0.007768,23.444454,27.907238,-1.000000,-1.000000,-1.000000
482149605.234126,0.214355,0.004745,-0.997421,0.039011,0.004470,0.001970,0.999237,0.002143,-0.039001,-0.001970,0.999988,0.004470,0.039010,-0.004389,0.999229,0.039001,-0.004470,-0.999229,0.083253,-0.002916,-0.010369,0.003883,0.000917,0.002258,23.444454,27.907238,-1.000000,-1.000000,-1.000000
482149605.244128,0.174591,-0.020691,-1.019882,0.039017,0.004443,0.001976,0.999237,0.002147,-0.039007,-0.001976,0.999988,0.004443,0.039016,-0.004363,0.999229,0.039007,-0.004443,-0.999229,0.256495,-0.012784,-0.018303,-0.008195,-0.001420,0.001662,23.444454,27.907238,-1.000000,-1.000000,-1.000000
482149605.254370,-0.064468,0.001678,-1.062668,0.039017,0.004443,0.001976,0.999237,0.002147,-0.039007,-0.001976,0.999988,0.004443,0.039016,-0.004363,0.999229,0.039007,-0.004443,-0.999229,0.256495,-0.012784,-0.018303,-0.008195,-0.001420,0.001662,23.446938,27.909721,-1.000000,-1.000000,-1.000000
482149605.264119,-0.214493,-0.015335,-1.004410,0.039042,0.004402,0.001951,0.999236,0.002121,-0.039032,-0.001951,0.999988,0.004402,0.039041,-0.004323,0.999228,0.039032,-0.004402,-0.999228,0.175324,0.009148,0.001807,-0.000480,0.002057,-0.006208,23.446938,27.909721,-1.000000,-1.000000,-1.000000
482149605.274121,-0.345093,-0.002670,-1.057083,0.039037,0.004344,0.001875,0.999236,0.002043,-0.039026,-0.001875,0.999989,0.004344,0.039035,-0.004268,0.999229,0.039026,-0.004344,-0.999229,0.135565,-0.016347,-0.020653,-0.004371,-0.000273,-0.001679,23.446938,27.909721,-1.000000,-1.000000,-1.000000
482149605.284166,-0.198730,-0.012375,-1.021957,0.039029,0.004331,0.001850,0.999236,0.002018,-0.039018,-0.001850,0.999989,0.004331,0.039027,-0.004256,0.999229,0.039018,-0.004331,-0.999229,-0.103487,0.006010,-0.063439,-0.001955,-0.000284,-0.001554,23.446938,27.909721,-1.000000,-1.000000,-1.000000
482149605.293679,-0.041245,-0.015656,-1.044540,0.039029,0.004331,0.001850,0.999236,0.002018,-0.039018,-0.001850,0.999989,0.004331,0.039027,-0.004256,0.999229,0.039018,-0.004331,-0.999229,-0.103487,0.006010,-0.063439,-0.001955,-0.000284,-0.001554,23.446938,27.909721,-1.000000,-1.000000,-1.000000
482149605.304175,0.197021,-0.011642,-1.030304,0.039002,0.004243,0.001872,0.999237,0.002036,-0.038992,-0.001871,0.999989,0.004243,0.039000,-0.004167,0.999231,0.038992,-0.004243,-0.999231,-0.384085,0.001573,-0.057853,0.001467,-0.000267,0.002149,23.451891,27.914677,-1.000000,-1.000000,-1.000000
482149605.314264,0.197021,-0.011642,-1.030304,0.039016,0.004225,0.001836,0.999237,0.002000,-0.039006,-0.001836,0.999989,0.004225,0.039014,-0.004150,0.999230,0.039006,-0.004225,-0.999230,-0.237736,-0.008150,-0.022727,-0.004305,0.002103,-0.002883,23.451891,27.914677,-1.000000,-1.000000,-1.000000
482149605.324120,0.365646,-0.004318,-0.998932,0.039054,0.004217,0.001782,0.999236,0.001945,-0.039044,-0.001782,0.999990,0.004217,0.039052,-0.004144,0.999229,0.039044,-0.004217,-0.999229,-0.080289,-0.011439,-0.045312,0.001667,0.002088,-0.001397,23.451891,27.914677,-1.000000,-1.000000,-1.000000
482149605.334129,0.321869,-0.017075,-1.032455,0.039054,0.004217,0.001782,0.999236,0.001945,-0.039044,-0.001782,0.999990,0.004217,0.039052,-0.004144,0.999229,0.039044,-0.004217,-0.999229,-0.080289,-0.011439,-0.045312,0.001667,0.002088,-0.001397,23.451891,27.914677,-1.000000,-1.000000,-1.000000
482149605.344124,0.233200,-0.002396,-1.040894,0.039063,0.004182,0.001725,0.999235,0.001887,-0.039052,-0.001725,0.999990,0.004182,0.039060,-0.004112,0.999228,0.039052,-0.004182,-0.999228,0.157969,-0.007460,-0.031076,-0.000480,-0.000331,-0.006176,23.451891,27.914677,-1.000000,-1.000000,-1.000000
482149605.353910,0.110687,-0.024063,-0.984818,0.039068,0.004212,0.001698,0.999235,0.001862,-0.039058,-0.001698,0.999990,0.004212,0.039065,-0.004142,0.999228,0.039058,-0.004212,-0.999228,0.282811,-0.012863,-0.033227,-0.003230,-0.000268,-0.000445,23.458170,27.920956,-1.000000,-1.000000,-1.000000
482149605.364154,-0.122910,0.003830,-1.072021,0.039068,0.004212,0.001698,0.999235,0.001862,-0.039058,-0.001698,0.999990,0.004212,0.039065,-0.004142,0.999228,0.039058,-0.004212,-0.999228,0.282811,-0.012863,-0.033227,-0.003230,-0.000268,-0.000445,23.458170,27.920956,-1.000000,-1.000000,-1.000000
482149605.374128,-0.210022,-0.030533,-1.039902,0.039082,0.004243,0.001674,0.999235,0.001839,-0.039072,-0.001674,0.999990,0.004243,0.039079,-0.004175,0.999227,0.039072,-0.004243,-0.999227,0.194128,0.001848,-0.041666,0.003009,0.002062,-0.003677,23.458170,27.920956,-1.000000,-1.000000,-1.000000
482149605.384120,-0.286484,-0.003647,-1.032196,0.039066,0.004161,0.001674,0.999235,0.001835,-0.039056,-0.001674,0.999990,0.004161,0.039063,-0.004093,0.999228,0.039056,-0.004161,-0.999228,0.071631,-0.019902,0.014411,-0.005512,-0.001472,-0.002898,23.458170,27.920956,-1.000000,-1.000000,-1.000000
482149605.394128,-0.164307,-0.016144,-1.042175,0.039063,0.004221,0.001667,0.999235,0.001830,-0.039053,-0.001667,0.999990,0.004221,0.039060,-0.004152,0.999228,0.039053,-0.004221,-0.999228,-0.161963,0.008051,-0.072793,0.007774,0.000859,-0.002239,23.458170,27.920956,-1.000000,-1.000000,-1.000000
482149605.403370,-0.164307,-0.016144,-1.042175,0.039063,0.004221,0.001667,0.999235,0.001830,-0.039053,-0.001667,0.999990,0.004221,0.039060,-0.004152,0.999228,0.039053,-0.004221,-0.999228,-0.161963,0.008051,-0.072793,0.007774,0.000859,-0.002239,23.469463,27.932247,-1.000000,-1.000000,-1.000000
482149605.414144,-0.022064,-0.000610,-1.047470,0.039042,0.004222,0.001662,0.999236,0.001825,-0.039031,-0.001662,0.999990,0.004222,0.039039,-0.004154,0.999229,0.039031,-0.004222,-0.999229,-0.325515,0.000575,-0.032967,0.003950,-0.002675,0.001135,23.469463,27.932247,-1.000000,-1.000000,-1.000000
482149605.424147,0.215805,-0.011429,-1.032089,0.039001,0.004242,0.001665,0.999238,0.001830,-0.038990,-0.001665,0.999990,0.004242,0.038998,-0.004174,0.999231,0.038990,-0.004242,-0.999231,-0.203297,-0.011902,-0.042945,0.000395,-0.005058,-0.000193,23.469463,27.932247,-1.000000,-1.000000,-1.000000
482149605.434195,0.377640,-0.009384,-1.023407,0.039028,0.004189,0.001621,0.999237,0.001784,-0.039018,-0.001621,0.999990,0.004189,0.039025,-0.004122,0.999230,0.039018,-0.004189,-0.999230,-0.061082,0.003578,-0.048240,-0.001017,0.002141,0.003162,23.469463,27.932247,-1.000000,-1.000000,-1.000000
482149605.444120,0.309525,-0.018692,-0.985611,0.039028,0.004189,0.001621,0.999237,0.001784,-0.039018,-0.001621,0.999990,0.004189,0.039025,-0.004122,0.999230,0.039018,-0.004189,-0.999230,-0.061082,0.003578,-0.048240,-0.001017,0.002141,0.003162,23.469463,27.932247,-1.000000,-1.000000,-1.000000
482149605.454277,0.234451,-0.008423,-1.048492,0.039009,0.004160,0.001586,0.999238,0.001747,-0.038999,-0.001586,0.999990,0.004160,0.039006,-0.004095,0.999231,0.038999,-0.004160,-0.999231,0.176806,-0.007269,-0.032859,-0.004370,-0.002661,-0.001648,23.469463,27.932247,-1.000000,-1.000000,-1.000000
482149605.464134,0.109848,-0.026703,-1.044083,0.039042,0.004195,0.001527,0.999237,0.001690,-0.039032,-0.001527,0.999990,0.004195,0.039039,-0.004133,0.999229,0.039032,-0.004195,-0.999229,0.270493,-0.014497,0.013618,-0.000682,0.004475,-0.002726,23.474438,27.937222,-1.000000,-1.000000,-1.000000
482149605.474199,-0.147202,-0.001877,-1.024841,0.039042,0.004195,0.001527,0.999237,0.001690,-0.039032,-0.001527,0.999990,0.004195,0.039039,-0.004133,0.999229,0.039032,-0.004195,-0.999229,0.270493,-0.014497,0.013618,-0.000682,0.004475,-0.002726,23.474438,27.937222,-1.000000,-1.000000,-1.000000
482149605.484123,-0.185501,-0.020248,-1.033691,0.039084,0.004154,0.001551,0.999235,0.001712,-0.039074,-0.001551,0.999990,0.004154,0.039080,-0.004090,0.999228,0.039074,-0.004154,-0.999228,0.195378,-0.004269,-0.049265,-0.003366,0.004528,0.001834,23.474438,27.937222,-1.000000,-1.000000,-1.000000
482149605.494120,-0.231964,0.004272,-1.092148,0.039129,0.004104,0.001631,0.999233,0.001790,-0.039118,-0.001631,0.999990,0.004104,0.039125,-0.004037,0.999226,0.039118,-0.004104,-0.999226,0.070730,-0.022599,-0.044856,-0.004640,0.002156,0.002973,23.474438,27.937222,-1.000000,-1.000000,-1.000000
482149605.504076,-0.161179,-0.022690,-1.011810,0.039110,0.004162,0.001667,0.999234,0.001828,-0.039099,-0.001667,0.999990,0.004162,0.039106,-0.004094,0.999227,0.039099,-0.004162,-0.999227,-0.186301,0.002285,-0.025615,0.004957,-0.002649,0.004711,23.474438,27.937222,-1.000000,-1.000000,-1.000000
482149605.514201,-0.161179,-0.022690,-1.011810,0.039110,0.004162,0.001667,0.999234,0.001828,-0.039099,-0.001667,0.999990,0.004162,0.039106,-0.004094,0.999227,0.039099,-0.004162,-0.999227,-0.186301,0.002285,-0.025615,0.004957,-0.002649,0.004711,23.477528,27.940311,-1.000000,-1.000000,-1.000000
482149605.524088,-0.179108,-0.002579,-1.053940,0.039127,0.004140,0.001715,0.999233,0.001876,-0.039116,-0.001715,0.999990,0.004140,0.039124,-0.004070,0.999226,0.039116,-0.004140,-0.999226,-0.271080,0.008413,-0.092922,0.004954,0.005706,0.004600,23.477528,27.940311,-1.000000,-1.000000,-1.000000
482149605.534129,0.118561,-0.017593,-1.036880,0.039152,0.004149,0.001750,0.999232,0.001911,-0.039141,-0.001750,0.999990,0.004149,0.039149,-0.004077,0.999225,0.039141,-0.004149,-0.999225,-0.200320,-0.018541,-0.012585,-0.000010,0.002167,0.006739,23.477528,27.940311,-1.000000,-1.000000,-1.000000
482149605.544577,0.289429,0.000839,-0.987045,0.039207,0.004206,0.001734,0.999230,0.001897,-0.039196,-0.001734,0.999990,0.004206,0.039204,-0.004135,0.999223,0.039196,-0.004206,-0.999223,-0.218304,0.001627,-0.054717,0.005222,0.006858,-0.000102,23.477528,27.940311,-1.000000,-1.000000,-1.000000
482149605.554195,0.323334,-0.007202,-1.036392,0.039207,0.004206,0.001734,0.999230,0.001897,-0.039196,-0.001734,0.999990,0.004206,0.039204,-0.004135,0.999223,0.039196,-0.004206,-0.999223,-0.218304,0.001627,-0.054717,0.005222,0.006858,-0.000102,23.477528,27.940311,-1.000000,-1.000000,-1.000000
482149605.564149,0.226761,-0.008728,-0.978058,0.039232,0.004115,0.001751,0.999229,0.001911,-0.039222,-0.001751,0.999990,0.004115,0.039229,-0.004043,0.999222,0.039222,-0.004115,-0.999222,0.079339,-0.013479,-0.037658,-0.011687,0.004542,-0.000949,23.486443,27.949226,-1.000000,-1.000000,-1.000000
482149605.574138,0.100082,-0.004944,-1.035217,0.039216,0.004183,0.001763,0.999229,0.001926,-0.039205,-0.001763,0.999990,0.004183,0.039213,-0.004111,0.999222,0.039205,-0.004183,-0.999222,0.284128,-0.003019,-0.037170,0.004182,0.002080,-0.002463,23.486443,27.949226,-1.000000,-1.000000,-1.000000
482149605.584070,-0.159241,-0.001190,-1.038193,0.039216,0.004183,0.001763,0.999229,0.001926,-0.039205,-0.001763,0.999990,0.004183,0.039213,-0.004111,0.999222,0.039205,-0.004183,-0.999222,0.284128,-0.003019,-0.037170,0.004182,0.002080,-0.002463,23.486443,27.949226,-1.000000,-1.000000,-1.000000
482149605.594120,-0.230331,-0.015121,-0.965530,0.039252,0.004198,0.001744,0.999228,0.001907,-0.039241,-0.001744,0.999990,0.004198,0.039249,-0.004126,0.999221,0.039241,-0.004198,-0.999221,0.284093,-0.003004,-0.037171,0.004114,0.006865,-0.001355,23.486443,27.949226,-1.000000,-1.000000,-1.000000
482149605.604192,-0.217163,0.005646,-1.073807,0.039258,0.004162,0.001716,0.999228,0.001878,-0.039247,-0.001716,0.999990,0.004162,0.039255,-0.004091,0.999221,0.039247,-0.004162,-0.999221,0.060835,-0.000782,-0.035996,-0.005748,0.002163,0.001720,23.486443,27.949226,-1.000000,-1.000000,-1.000000
482149605.614244,-0.217163,0.005646,-1.073807,0.039239,0.004182,0.001714,0.999229,0.001877,-0.039228,-0.001714,0.999990,0.004182,0.039236,-0.004112,0.999222,0.039228,-0.004182,-0.999222,-0.198469,0.002992,-0.038971,0.005257,-0.000291,-0.000025,23.490103,27.952888,-1.000000,-1.000000,-1.000000
482149605.624120,-0.172623,-0.024323,-1.056183,0.039239,0.004182,0.001714,0.999229,0.001877,-0.039228,-0.001714,0.999990,0.004182,0.039236,-0.004112,0.999222,0.039228,-0.004182,-0.999222,-0.198469,0.002992,-0.038971,0.005257,-0.000291,-0.000025,23.490103,27.952888,-1.000000,-1.000000,-1.000000
482149605.634133,-0.200104,0.003372,-1.026123,0.039228,0.004184,0.001698,0.999229,0.001861,-0.039218,-0.001698,0.999990,0.004184,0.039225,-0.004115,0.999222,0.039218,-0.004184,-0.999222,-0.256381,0.009830,-0.074585,0.008946,0.002070,-0.001040,23.490103,27.952888,-1.000000,-1.000000,-1.000000
482149605.644129,0.098999,-0.015671,-1.019623,0.039226,0.004211,0.001690,0.999229,0.001854,-0.039215,-0.001690,0.999990,0.004211,0.039223,-0.004141,0.999222,0.039215,-0.004211,-0.999222,-0.256378,0.009856,-0.074585,0.002774,-0.000270,0.001021,23.490103,27.952888,-1.000000,-1.000000,-1.000000
482149605.654080,0.292130,0.010452,-1.015182,0.039226,0.004211,0.001690,0.999229,0.001854,-0.039215,-0.001690,0.999990,0.004211,0.039223,-0.004141,0.999222,0.039215,-0.004211,-0.999222,-0.256378,0.009856,-0.074585,0.002774,-0.000270,0.001021,23.490103,27.952888,-1.000000,-1.000000,-1.000000
482149605.664141,0.442612,-0.010986,-0.969940,0.039275,0.004257,0.001690,0.999227,0.001856,-0.039265,-0.001690,0.999990,0.004257,0.039272,-0.004187,0.999220,0.039265,-0.004257,-0.999220,-0.239369,0.007629,-0.026903,0.008812,0.004479,0.001271,23.497988,27.960773,-1.000000,-1.000000,-1.000000
482149605.674273,0.315231,-0.003693,-1.067993,0.039306,0.004260,0.001714,0.999226,0.001880,-0.039295,-0.001714,0.999989,0.004260,0.039303,-0.004190,0.999219,0.039295,-0.004260,-0.999219,0.059704,-0.011411,-0.020404,-0.000985,0.005734,0.003095,23.497988,27.960773,-1.000000,-1.000000,-1.000000
482149605.684237,0.071594,-0.013840,-1.002823,0.039333,0.004330,0.001671,0.999225,0.001840,-0.039323,-0.001671,0.999989,0.004330,0.039330,-0.004261,0.999217,0.039323,-0.004330,-0.999217,0.403289,-0.006657,0.029277,0.000492,-0.000281,-0.001447,23.497988,27.960773,-1.000000,-1.000000,-1.000000
482149605.694157,-0.119431,-0.003769,-1.048386,0.039333,0.004330,0.001671,0.999225,0.001840,-0.039323,-0.001671,0.999989,0.004330,0.039330,-0.004261,0.999217,0.039323,-0.004330,-0.999217,0.403289,-0.006657,0.029277,0.000492,-0.000281,-0.001447,23.497988,27.960773,-1.000000,-1.000000,-1.000000
482149605.704116,-0.315186,-0.004974,-1.029037,0.039336,0.004290,0.001635,0.999225,0.001803,-0.039326,-0.001635,0.999989,0.004290,0.039333,-0.004222,0.999217,0.039326,-0.004290,-0.999217,0.403286,-0.006697,0.029277,-0.005547,0.000938,-0.001778,23.497988,27.960773,-1.000000,-1.000000,-1.000000
482149605.714008,-0.259598,-0.001236,-1.018951,0.039365,0.004230,0.001682,0.999224,0.001848,-0.039354,-0.001682,0.999990,0.004229,0.039362,-0.004160,0.999216,0.039354,-0.004229,-0.999216,0.032240,-0.009610,-0.003607,-0.002325,-0.000208,0.005454,23.496225,27.959011,-1.000000,-1.000000,-1.000000
482149605.723696,-0.259598,-0.001236,-1.018951,0.039340,0.004310,0.001724,0.999224,0.001892,-0.039330,-0.001724,0.999989,0.004310,0.039338,-0.004239,0.999217,0.039330,-0.004310,-0.999217,-0.158760,0.000541,-0.049169,0.008814,-0.002683,0.001366,23.496225,27.959011,-1.000000,-1.000000,-1.000000
482149605.734194,-0.154877,-0.009964,-1.031998,0.039340,0.004310,0.001724,0.999224,0.001892,-0.039330,-0.001724,0.999989,0.004310,0.039338,-0.004239,0.999217,0.039330,-0.004310,-0.999217,-0.158760,0.000541,-0.049169,0.008814,-0.002683,0.001366,23.496225,27.959011,-1.000000,-1.000000,-1.000000
482149605.744008,-0.126633,0.011322,-1.016953,0.039363,0.004378,0.001800,0.999223,0.001971,-0.039353,-0.001800,0.999989,0.004378,0.039361,-0.004304,0.999216,0.039353,-0.004378,-0.999216,-0.298950,0.003142,-0.019736,0.010914,0.002142,0.007273,23.496225,27.959011,-1.000000,-1.000000,-1.000000
482149605.754118,0.140991,-0.011932,-0.993835,0.039339,0.004420,0.001819,0.999224,0.001992,-0.039328,-0.001819,0.999989,0.004420,0.039337,-0.004345,0.999217,0.039328,-0.004420,-0.999217,-0.194205,-0.005544,-0.032781,0.001521,-0.003828,0.002165,23.496225,27.959011,-1.000000,-1.000000,-1.000000
482149605.764090,0.317261,0.006866,-1.008789,0.039339,0.004420,0.001819,0.999224,0.001992,-0.039328,-0.001819,0.999989,0.004420,0.039337,-0.004345,0.999217,0.039328,-0.004420,-0.999217,-0.194205,-0.005544,-0.032781,0.001521,-0.003828,0.002165,23.496225,27.959011,-1.000000,-1.000000,-1.000000
482149605.774139,0.363022,-0.006195,-0.987381,0.039339,0.004418,0.001770,0.999224,0.001943,-0.039329,-0.001770,0.999989,0.004418,0.039337,-0.004345,0.999217,0.039329,-0.004418,-0.999217,-0.165961,0.015740,-0.017736,0.007894,0.000869,-0.003440,23.499533,27.962318,-1.000000,-1.000000,-1.000000
482149605.784125,0.302750,-0.000122,-0.997910,0.039288,0.004322,0.001762,0.999226,0.001930,-0.039277,-0.001762,0.999989,0.004322,0.039285,-0.004250,0.999219,0.039277,-0.004322,-0.999219,0.101714,-0.007610,0.005384,-0.011564,-0.006190,-0.002007,23.499533,27.962318,-1.000000,-1.000000,-1.000000
482149605.794151,0.270004,-0.007599,-1.014313,0.039288,0.004320,0.001718,0.999227,0.001886,-0.039278,-0.001718,0.999989,0.004320,0.039286,-0.004249,0.999219,0.039278,-0.004320,-0.999219,0.323744,-0.001875,0.011838,-0.000427,0.000883,-0.006223,23.499533,27.962318,-1.000000,-1.000000,-1.000000
482149605.804668,0.022552,-0.001541,-0.999130,0.039288,0.004320,0.001718,0.999227,0.001886,-0.039278,-0.001718,0.999989,0.004320,0.039286,-0.004249,0.999219,0.039278,-0.004320,-0.999219,0.323744,-0.001875,0.011838,-0.000427,0.000883,-0.006223,23.499533,27.962318,-1.000000,-1.000000,-1.000000
482149605.814153,-0.122589,-0.005783,-1.045670,0.039314,0.004302,0.001704,0.999226,0.001872,-0.039303,-0.001704,0.999989,0.004302,0.039311,-0.004231,0.999218,0.039303,-0.004302,-0.999218,0.263447,0.004180,0.001309,-0.002105,0.003349,0.001881,23.499533,27.962318,-1.000000,-1.000000,-1.000000
482149605.824150,-0.236664,-0.006958,-1.027222,0.039287,0.004341,0.001785,0.999226,0.001954,-0.039277,-0.001785,0.999989,0.004341,0.039285,-0.004268,0.999219,0.039277,-0.004341,-0.999219,0.230728,-0.003257,-0.015094,-0.003646,-0.002561,0.007754,23.493250,27.956036,-1.000000,-1.000000,-1.000000
482149605.834095,-0.236664,-0.006958,-1.027222,0.039290,0.004323,0.001766,0.999226,0.001934,-0.039280,-0.001766,0.999989,0.004323,0.039288,-0.004251,0.999219,0.039280,-0.004323,-0.999219,-0.016727,0.002782,0.000089,-0.000629,0.000915,-0.002709,23.493250,27.956036,-1.000000,-1.000000,-1.000000
