Timestamp,Accel_X,Accel_Y,Accel_Z,Roll,Pitch,Yaw,RM11,RM12,RM13,RM21,RM22,RM23,RM31,RM32,RM33,GravAcc_X,GravAcc_Y,GravAcc_Z,UserAcc_X,UserAcc_Y,UserAcc_Z,RotRate_X,RotRate_Y,RotRate_Z,MagHeading,TrueHeading,HeadingAccuracy,Course,Speed
482149488.206867,0.023254,-0.008652,-1.015518,0.038614,0.005919,-0.013880,0.999161,-0.013641,-0.038604,0.013880,0.999886,0.005919,0.038519,-0.006450,0.999237,0.038604,-0.005919,-0.999237,0.000901,-0.000642,-0.025024,0.003869,0.002394,-0.002817,23.322592,27.785378,-1.000000,-1.000000,-1.000000
482149488.215185,-0.026642,-0.004532,-1.037018,0.038614,0.005919,-0.013880,0.999161,-0.013641,-0.038604,0.013880,0.999886,0.005919,0.038519,-0.006450,0.999237,0.038604,-0.005919,-0.999237,0.000901,-0.000642,-0.025024,0.003869,0.002394,-0.002817,23.322592,27.785378,-1.000000,-1.000000,-1.000000
482149488.225517,-0.003860,-0.008041,-1.022964,0.038614,0.005919,-0.013880,0.999161,-0.013641,-0.038604,0.013880,0.999886,0.005919,0.038519,-0.006450,0.999237,0.038604,-0.005919,-0.999237,0.000901,-0.000642,-0.025024,0.003869,0.002394,-0.002817,23.322592,27.785378,-1.000000,-1.000000,-1.000000
482149488.236818,-0.003860,-0.008041,-1.022964,0.038614,0.005919,-0.013880,0.999161,-0.013641,-0.038604,0.013880,0.999886,0.005919,0.038519,-0.006450,0.999237,0.038604,-0.005919,-0.999237,0.000901,-0.000642,-0.025024,0.003869,0.002394,-0.002817,23.322592,27.785378,-1.000000,-1.000000,-1.000000
482149488.246175,0.021118,-0.003662,-1.009888,0.038614,0.005919,-0.013880,0.999161,-0.013641,-0.038604,0.013880,0.999886,0.005919,0.038519,-0.006450,0.999237,0.038604,-0.005919,-0.999237,0.000901,-0.000642,-0.025024,0.003869,0.002394,-0.002817,23.322592,27.785378,-1.000000,-1.000000,-1.000000
482149488.256148,0.006042,-0.005966,-1.023361,0.038614,0.005919,-0.013880,0.999161,-0.013641,-0.038604,0.013880,0.999886,0.005919,0.038519,-0.006450,0.999237,0.038604,-0.005919,-0.999237,0.000901,-0.000642,-0.025024,0.003869,0.002394,-0.002817,23.322592,27.785378,-1.000000,-1.000000,-1.000000
482149488.265387,0.026306,-0.012772,-1.037613,0.038614,0.005919,-0.013880,0.999161,-0.013641,-0.038604,0.013880,0.999886,0.005919,0.038519,-0.006450,0.999237,0.038604,-0.005919,-0.999237,0.000901,-0.000642,-0.025024,0.003869,0.002394,-0.002817,23.322592,27.785378,-1.000000,-1.000000,-1.000000
482149488.275854,0.030426,-0.010788,-1.040298,0.038614,0.005919,-0.013880,0.999161,-0.013641,-0.038604,0.013880,0.999886,0.005919,0.038519,-0.006450,0.999237,0.038604,-0.005919,-0.999237,0.000901,-0.000642,-0.025024,0.003869,0.002394,-0.002817,23.322592,27.785378,-1.000000,-1.000000,-1.000000
482149488.285302,0.091370,-0.010834,-1.022095,0.038614,0.005919,-0.013880,0.999161,-0.013641,-0.038604,0.013880,0.999886,0.005919,0.038519,-0.006450,0.999237,0.038604,-0.005919,-0.999237,0.000901,-0.000642,-0.025024,0.003869,0.002394,-0.002817,23.322592,27.785378,-1.000000,-1.000000,-1.000000
482149488.295346,0.029663,-0.001495,-1.003555,0.038614,0.005919,-0.013880,0.999161,-0.013641,-0.038604,0.013880,0.999886,0.005919,0.038519,-0.006450,0.999237,0.038604,-0.005919,-0.999237,0.000901,-0.000642,-0.025024,0.003869,0.002394,-0.002817,23.322592,27.785378,-1.000000,-1.000000,-1.000000
482149488.306090,0.045303,-0.003479,-1.021042,0.038614,0.005919,-0.013880,0.999161,-0.013641,-0.038604,0.013880,0.999886,0.005919,0.038519,-0.006450,0.999237,0.038604,-0.005919,-0.999237,0.000901,-0.000642,-0.025024,0.003869,0.002394,-0.002817,23.322592,27.785378,-1.000000,-1.000000,-1.000000
482149488.315779,0.053802,-0.007278,-1.016602,0.038614,0.005919,-0.013880,0.999161,-0.013641,-0.038604,0.013880,0.999886,0.005919,0.038519,-0.006450,0.999237,0.038604,-0.005919,-0.999237,0.000901,-0.000642,-0.025024,0.003869,0.002394,-0.002817,23.322592,27.785378,-1.000000,-1.000000,-1.000000
482149488.326020,0.008347,-0.010971,-1.031891,0.038614,0.005919,-0.013880,0.999161,-0.013641,-0.038604,0.013880,0.999886,0.005919,0.038519,-0.006450,0.999237,0.038604,-0.005919,-0.999237,0.000901,-0.000642,-0.025024,0.003869,0.002394,-0.002817,23.322592,27.785378,-1.000000,-1.000000,-1.000000
482149488.336339,-0.012558,-0.011169,-1.027328,0.038614,0.005919,-0.013880,0.999161,-0.013641,-0.038604,0.013880,0.999886,0.005919,0.038519,-0.006450,0.999237,0.038604,-0.005919,-0.999237,0.000901,-0.000642,-0.025024,0.003869,0.002394,-0.002817,23.322592,27.785378,-1.000000,-1.000000,-1.000000
482149488.346086,-0.054825,-0.007706,-1.026016,0.038614,0.005919,-0.013880,0.999161,-0.013641,-0.038604,0.013880,0.999886,0.005919,0.038519,-0.006450,0.999237,0.038604,-0.005919,-0.999237,0.000901,-0.000642,-0.025024,0.003869,0.002394,-0.002817,23.322592,27.785378,-1.000000,-1.000000,-1.000000
482149488.355969,-0.054825,-0.007706,-1.026016,0.038614,0.005919,-0.013880,0.999161,-0.013641,-0.038604,0.013880,0.999886,0.005919,0.038519,-0.006450,0.999237,0.038604,-0.005919,-0.999237,0.000901,-0.000642,-0.025024,0.003869,0.002394,-0.002817,23.322592,27.785378,-1.000000,-1.000000,-1.000000
482149488.366295,0.035400,-0.003784,-1.038162,0.038614,0.005919,-0.013880,0.999161,-0.013641,-0.038604,0.013880,0.999886,0.005919,0.038519,-0.006450,0.999237,0.038604,-0.005919,-0.999237,0.000901,-0.000642,-0.025024,0.003869,0.002394,-0.002817,23.322592,27.785378,-1.000000,-1.000000,-1.000000
482149488.375914,-0.000443,-0.009109,-1.032455,0.038614,0.005919,-0.013880,0.999161,-0.013641,-0.038604,0.013880,0.999886,0.005919,0.038519,-0.006450,0.999237,0.038604,-0.005919,-0.999237,0.000901,-0.000642,-0.025024,0.003869,0.002394,-0.002817,23.322592,27.785378,-1.000000,-1.000000,-1.000000
482149488.386332,-0.022293,-0.010315,-1.028900,0.038614,0.005919,-0.013880,0.999161,-0.013641,-0.038604,0.013880,0.999886,0.005919,0.038519,-0.006450,0.999237,0.038604,-0.005919,-0.999237,0.000901,-0.000642,-0.025024,0.003869,0.002394,-0.002817,23.322592,27.785378,-1.000000,-1.000000,-1.000000
482149488.396145,0.022400,-0.015625,-1.021301,0.038614,0.005919,-0.013880,0.999161,-0.013641,-0.038604,0.013880,0.999886,0.005919,0.038519,-0.006450,0.999237,0.038604,-0.005919,-0.999237,0.000901,-0.000642,-0.025024,0.003869,0.002394,-0.002817,23.322592,27.785378,-1.000000,-1.000000,-1.000000
482149488.406198,0.044342,-0.004700,-1.040512,0.038614,0.005919,-0.013880,0.999161,-0.013641,-0.038604,0.013880,0.999886,0.005919,0.038519,-0.006450,0.999237,0.038604,-0.005919,-0.999237,0.000901,-0.000642,-0.025024,0.003869,0.002394,-0.002817,23.322592,27.785378,-1.000000,-1.000000,-1.000000
482149488.416202,0.091705,-0.019852,-1.032639,0.038614,0.005919,-0.013880,0.999161,-0.013641,-0.038604,0.013880,0.999886,0.005919,0.038519,-0.006450,0.999237,0.038604,-0.005919,-0.999237,0.000901,-0.000642,-0.025024,0.003869,0.002394,-0.002817,23.322592,27.785378,-1.000000,-1.000000,-1.000000
482149488.426211,0.020294,-0.005875,-1.032227,0.038614,0.005919,-0.013880,0.999161,-0.013641,-0.038604,0.013880,0.999886,0.005919,0.038519,-0.006450,0.999237,0.038604,-0.005919,-0.999237,0.000901,-0.000642,-0.025024,0.003869,0.002394,-0.002817,23.322592,27.785378,-1.000000,-1.000000,-1.000000
482149488.436158,0.059998,-0.015228,-1.025848,0.038614,0.005919,-0.013880,0.999161,-0.013641,-0.038604,0.013880,0.999886,0.005919,0.038519,-0.006450,0.999237,0.038604,-0.005919,-0.999237,0.000901,-0.000642,-0.025024,0.003869,0.002394,-0.002817,23.322592,27.785378,-1.000000,-1.000000,-1.000000
482149488.446144,0.077560,-0.006042,-1.019073,0.038614,0.005919,-0.013880,0.999161,-0.013641,-0.038604,0.013880,0.999886,0.005919,0.038519,-0.006450,0.999237,0.038604,-0.005919,-0.999237,0.000901,-0.000642,-0.025024,0.003869,0.002394,-0.002817,23.322592,27.785378,-1.000000,-1.000000,-1.000000
482149488.456218,0.025467,-0.014816,-1.041519,0.038614,0.005919,-0.013880,0.999161,-0.013641,-0.038604,0.013880,0.999886,0.005919,0.038519,-0.006450,0.999237,0.038604,-0.005919,-0.999237,0.000901,-0.000642,-0.025024,0.003869,0.002394,-0.002817,23.322592,27.785378,-1.000000,-1.000000,-1.000000
482149488.465747,0.025467,-0.014816,-1.041519,0.038614,0.005919,-0.013880,0.999161,-0.013641,-0.038604,0.013880,0.999886,0.005919,0.038519,-0.006450,0.999237,0.038604,-0.005919,-0.999237,0.000901,-0.000642,-0.025024,0.003869,0.002394,-0.002817,23.322592,27.785378,-1.000000,-1.000000,-1.000000
482149488.476177,-0.035324,-0.005447,-1.021957,0.038614,0.005919,-0.013880,0.999161,-0.013641,-0.038604,0.013880,0.999886,0.005919,0.038519,-0.006450,0.999237,0.038604,-0.005919,-0.999237,0.000901,-0.000642,-0.025024,0.003869,0.002394,-0.002817,23.322592,27.785378,-1.000000,-1.000000,-1.000000
482149488.486169,0.063629,-0.010345,-1.036362,0.038614,0.005919,-0.013880,0.999161,-0.013641,-0.038604,0.013880,0.999886,0.005919,0.038519,-0.006450,0.999237,0.038604,-0.005919,-0.999237,0.000901,-0.000642,-0.025024,0.003869,0.002394,-0.002817,23.322592,27.785378,-1.000000,-1.000000,-1.000000
482149488.496140,0.002563,-0.008881,-1.014816,0.038614,0.005919,-0.013880,0.999161,-0.013641,-0.038604,0.013880,0.999886,0.005919,0.038519,-0.006450,0.999237,0.038604,-0.005919,-0.999237,0.000901,-0.000642,-0.025024,0.003869,0.002394,-0.002817,23.322592,27.785378,-1.000000,-1.000000,-1.000000
482149488.506146,-0.017181,-0.006317,-1.030579,0.038614,0.005919,-0.013880,0.999161,-0.013641,-0.038604,0.013880,0.999886,0.005919,0.038519,-0.006450,0.999237,0.038604,-0.005919,-0.999237,0.000901,-0.000642,-0.025024,0.003869,0.002394,-0.002817,23.322592,27.785378,-1.000000,-1.000000,-1.000000
482149488.516158,0.015869,-0.010818,-1.025635,0.038614,0.005919,-0.013880,0.999161,-0.013641,-0.038604,0.013880,0.999886,0.005919,0.038519,-0.006450,0.999237,0.038604,-0.005919,-0.999237,0.000901,-0.000642,-0.025024,0.003869,0.002394,-0.002817,23.322592,27.785378,-1.000000,-1.000000,-1.000000
482149488.525787,0.014282,-0.000153,-1.046265,0.038614,0.005919,-0.013880,0.999161,-0.013641,-0.038604,0.013880,0.999886,0.005919,0.038519,-0.006450,0.999237,0.038604,-0.005919,-0.999237,0.000901,-0.000642,-0.025024,0.003869,0.002394,-0.002817,23.322592,27.785378,-1.000000,-1.000000,-1.000000
482149488.536192,0.102524,-0.009384,-0.990326,0.038614,0.005919,-0.013880,0.999161,-0.013641,-0.038604,0.013880,0.999886,0.005919,0.038519,-0.006450,0.999237,0.038604,-0.005919,-0.999237,0.000901,-0.000642,-0.025024,0.003869,0.002394,-0.002817,23.322592,27.785378,-1.000000,-1.000000,-1.000000
482149488.545576,0.029617,0.004471,-0.999756,0.038614,0.005919,-0.013880,0.999161,-0.013641,-0.038604,0.013880,0.999886,0.005919,0.038519,-0.006450,0.999237,0.038604,-0.005919,-0.999237,0.000901,-0.000642,-0.025024,0.003869,0.002394,-0.002817,23.322592,27.785378,-1.000000,-1.000000,-1.000000
482149488.555468,0.061035,-0.005280,-1.022034,0.038614,0.005919,-0.013880,0.999161,-0.013641,-0.038604,0.013880,0.999886,0.005919,0.038519,-0.006450,0.999237,0.038604,-0.005919,-0.999237,0.000901,-0.000642,-0.025024,0.003869,0.002394,-0.002817,23.322592,27.785378,-1.000000,-1.000000,-1.000000
482149488.566233,0.097336,-0.003830,-1.019882,0.038614,0.005919,-0.013880,0.999161,-0.013641,-0.038604,0.013880,0.999886,0.005919,0.038519,-0.006450,0.999237,0.038604,-0.005919,-0.999237,0.000901,-0.000642,-0.025024,0.003869,0.002394,-0.002817,23.322592,27.785378,-1.000000,-1.000000,-1.000000
482149488.575632,0.097336,-0.003830,-1.019882,0.038614,0.005919,-0.013880,0.999161,-0.013641,-0.038604,0.013880,0.999886,0.005919,0.038519,-0.006450,0.999237,0.038604,-0.005919,-0.999237,0.000901,-0.000642,-0.025024,0.003869,0.002394,-0.002817,23.322592,27.785378,-1.000000,-1.000000,-1.000000
482149488.586289,0.077179,-0.010925,-1.014191,0.038614,0.005919,-0.013880,0.999161,-0.013641,-0.038604,0.013880,0.999886,0.005919,0.038519,-0.006450,0.999237,0.038604,-0.005919,-0.999237,0.000901,-0.000642,-0.025024,0.003869,0.002394,-0.002817,23.322592,27.785378,-1.000000,-1.000000,-1.000000
482149488.596133,0.007080,-0.014114,-1.046509,0.038614,0.005919,-0.013880,0.999161,-0.013641,-0.038604,0.013880,0.999886,0.005919,0.038519,-0.006450,0.999237,0.038604,-0.005919,-0.999237,0.000901,-0.000642,-0.025024,0.003869,0.002394,-0.002817,23.322592,27.785378,-1.000000,-1.000000,-1.000000
482149488.605615,-0.070389,-0.002960,-1.027023,0.038614,0.005919,-0.013880,0.999161,-0.013641,-0.038604,0.013880,0.999886,0.005919,0.038519,-0.006450,0.999237,0.038604,-0.005919,-0.999237,0.000901,-0.000642,-0.025024,0.003869,0.002394,-0.002817,23.322592,27.785378,-1.000000,-1.000000,-1.000000
482149488.616227,0.017471,-0.008942,-1.036255,0.038614,0.005919,-0.013880,0.999161,-0.013641,-0.038604,0.013880,0.999886,0.005919,0.038519,-0.006450,0.999237,0.038604,-0.005919,-0.999237,0.000901,-0.000642,-0.025024,0.003869,0.002394,-0.002817,23.322592,27.785378,-1.000000,-1.000000,-1.000000
482149488.626248,-0.028915,-0.007263,-1.013779,0.038614,0.005919,-0.013880,0.999161,-0.013641,-0.038604,0.013880,0.999886,0.005919,0.038519,-0.006450,0.999237,0.038604,-0.005919,-0.999237,0.000901,-0.000642,-0.025024,0.003869,0.002394,-0.002817,23.322592,27.785378,-1.000000,-1.000000,-1.000000
482149488.636201,-0.012711,-0.009155,-1.023483,0.038614,0.005919,-0.013880,0.999161,-0.013641,-0.038604,0.013880,0.999886,0.005919,0.038519,-0.006450,0.999237,0.038604,-0.005919,-0.999237,0.000901,-0.000642,-0.025024,0.003869,0.002394,-0.002817,23.322592,27.785378,-1.000000,-1.000000,-1.000000
482149488.646229,0.034897,-0.005676,-1.029419,0.038614,0.005919,-0.013880,0.999161,-0.013641,-0.038604,0.013880,0.999886,0.005919,0.038519,-0.006450,0.999237,0.038604,-0.005919,-0.999237,0.000901,-0.000642,-0.025024,0.003869,0.002394,-0.002817,23.322592,27.785378,-1.000000,-1.000000,-1.000000
482149488.656172,0.135422,-0.003311,-1.014679,0.038614,0.005919,-0.013880,0.999161,-0.013641,-0.038604,0.013880,0.999886,0.005919,0.038519,-0.006450,0.999237,0.038604,-0.005919,-0.999237,0.000901,-0.000642,-0.025024,0.003869,0.002394,-0.002817,23.322592,27.785378,-1.000000,-1.000000,-1.000000
482149488.666192,0.107498,0.004379,-1.003830,0.038614,0.005919,-0.013880,0.999161,-0.013641,-0.038604,0.013880,0.999886,0.005919,0.038519,-0.006450,0.999237,0.038604,-0.005919,-0.999237,0.000901,-0.000642,-0.025024,0.003869,0.002394,-0.002817,23.322592,27.785378,-1.000000,-1.000000,-1.000000
482149488.676032,0.082092,-0.006119,-1.030457,0.038614,0.005919,-0.013880,0.999161,-0.013641,-0.038604,0.013880,0.999886,0.005919,0.038519,-0.006450,0.999237,0.038604,-0.005919,-0.999237,0.000901,-0.000642,-0.025024,0.003869,0.002394,-0.002817,23.322592,27.785378,-1.000000,-1.000000,-1.000000
482149488.686209,0.138062,-0.008392,-1.030014,0.038614,0.005919,-0.013880,0.999161,-0.013641,-0.038604,0.013880,0.999886,0.005919,0.038519,-0.006450,0.999237,0.038604,-0.005919,-0.999237,0.000901,-0.000642,-0.025024,0.003869,0.002394,-0.002817,23.322592,27.785378,-1.000000,-1.000000,-1.000000
482149488.696214,0.108383,-0.006531,-1.007523,0.038614,0.005919,-0.013880,0.999161,-0.013641,-0.038604,0.013880,0.999886,0.005919,0.038519,-0.006450,0.999237,0.038604,-0.005919,-0.999237,0.000901,-0.000642,-0.025024,0.003869,0.002394,-0.002817,23.322592,27.785378,-1.000000,-1.000000,-1.000000
482149488.705886,0.108383,-0.006531,-1.007523,0.038614,0.005919,-0.013880,0.999161,-0.013641,-0.038604,0.013880,0.999886,0.005919,0.038519,-0.006450,0.999237,0.038604,-0.005919,-0.999237,0.000901,-0.000642,-0.025024,0.003869,0.002394,-0.002817,23.322592,27.785378,-1.000000,-1.000000,-1.000000
482149488.716240,-0.026947,-0.002655,-1.048691,0.038614,0.005919,-0.013880,0.999161,-0.013641,-0.038604,0.013880,0.999886,0.005919,0.038519,-0.006450,0.999237,0.038604,-0.005919,-0.999237,0.000901,-0.000642,-0.025024,0.003869,0.002394,-0.002817,23.322592,27.785378,-1.000000,-1.000000,-1.000000
482149488.726152,-0.086334,-0.005112,-1.024063,0.038614,0.005919,-0.013880,0.999161,-0.013641,-0.038604,0.013880,0.999886,0.005919,0.038519,-0.006450,0.999237,0.038604,-0.005919,-0.999237,0.000901,-0.000642,-0.025024,0.003869,0.002394,-0.002817,23.322592,27.785378,-1.000000,-1.000000,-1.000000
482149488.736224,0.000137,-0.005035,-1.022766,0.038614,0.005919,-0.013880,0.999161,-0.013641,-0.038604,0.013880,0.999886,0.005919,0.038519,-0.006450,0.999237,0.038604,-0.005919,-0.999237,0.000901,-0.000642,-0.025024,0.003869,0.002394,-0.002817,23.322592,27.785378,-1.000000,-1.000000,-1.000000
482149488.746154,0.015274,-0.010880,-1.032455,0.038614,0.005919,-0.013880,0.999161,-0.013641,-0.038604,0.013880,0.999886,0.005919,0.038519,-0.006450,0.999237,0.038604,-0.005919,-0.999237,0.000901,-0.000642,-0.025024,0.003869,0.002394,-0.002817,23.322592,27.785378,-1.000000,-1.000000,-1.000000
482149488.756010,-0.050797,-0.003693,-1.025833,0.038614,0.005919,-0.013880,0.999161,-0.013641,-0.038604,0.013880,0.999886,0.005919,0.038519,-0.006450,0.999237,0.038604,-0.005919,-0.999237,0.000901,-0.000642,-0.025024,0.003869,0.002394,-0.002817,23.322592,27.785378,-1.000000,-1.000000,-1.000000
482149488.766195,0.068924,-0.011139,-1.025360,0.038614,0.005919,-0.013880,0.999161,-0.013641,-0.038604,0.013880,0.999886,0.005919,0.038519,-0.006450,0.999237,0.038604,-0.005919,-0.999237,0.000901,-0.000642,-0.025024,0.003869,0.002394,-0.002817,23.322592,27.785378,-1.000000,-1.000000,-1.000000
482149488.776289,0.119110,-0.009369,-1.006836,0.038614,0.005919,-0.013880,0.999161,-0.013641,-0.038604,0.013880,0.999886,0.005919,0.038519,-0.006450,0.999237,0.038604,-0.005919,-0.999237,0.000901,-0.000642,-0.025024,0.003869,0.002394,-0.002817,23.322592,27.785378,-1.000000,-1.000000,-1.000000
482149488.786351,0.132751,-0.006378,-1.021606,0.038614,0.005919,-0.013880,0.999161,-0.013641,-0.038604,0.013880,0.999886,0.005919,0.038519,-0.006450,0.999237,0.038604,-0.005919,-0.999237,0.000901,-0.000642,-0.025024,0.003869,0.002394,-0.002817,23.322592,27.785378,-1.000000,-1.000000,-1.000000
482149488.796245,0.078339,0.000778,-1.030792,0.038614,0.005919,-0.013880,0.999161,-0.013641,-0.038604,0.013880,0.999886,0.005919,0.038519,-0.006450,0.999237,0.038604,-0.005919,-0.999237,0.000901,-0.000642,-0.025024,0.003869,0.002394,-0.002817,23.322592,27.785378,-1.000000,-1.000000,-1.000000
482149488.806198,0.140320,-0.011002,-0.999710,0.038614,0.005919,-0.013880,0.999161,-0.013641,-0.038604,0.013880,0.999886,0.005919,0.038519,-0.006450,0.999237,0.038604,-0.005919,-0.999237,0.000901,-0.000642,-0.025024,0.003869,0.002394,-0.002817,23.322592,27.785378,-1.000000,-1.000000,-1.000000
482149488.815687,0.140320,-0.011002,-0.999710,0.038614,0.005919,-0.013880,0.999161,-0.013641,-0.038604,0.013880,0.999886,0.005919,0.038519,-0.006450,0.999237,0.038604,-0.005919,-0.999237,0.000901,-0.000642,-0.025024,0.003869,0.002394,-0.002817,23.322592,27.785378,-1.000000,-1.000000,-1.000000
482149488.826344,0.122833,0.001480,-1.016464,0.038614,0.005919,-0.013880,0.999161,-0.013641,-0.038604,0.013880,0.999886,0.005919,0.038519,-0.006450,0.999237,0.038604,-0.005919,-0.999237,0.000901,-0.000642,-0.025024,0.003869,0.002394,-0.002817,23.322592,27.785378,-1.000000,-1.000000,-1.000000
482149488.836168,0.002838,-0.006149,-1.037155,0.038614,0.005919,-0.013880,0.999161,-0.013641,-0.038604,0.013880,0.999886,0.005919,0.038519,-0.006450,0.999237,0.038604,-0.005919,-0.999237,0.000901,-0.000642,-0.025024,0.003869,0.002394,-0.002817,23.322592,27.785378,-1.000000,-1.000000,-1.000000
482149488.846238,-0.061462,-0.011612,-1.013733,0.038614,0.005919,-0.013880,0.999161,-0.013641,-0.038604,0.013880,0.999886,0.005919,0.038519,-0.006450,0.999237,0.038604,-0.005919,-0.999237,0.000901,-0.000642,-0.025024,0.003869,0.002394,-0.002817,23.322592,27.785378,-1.000000,-1.000000,-1.000000
482149488.856233,-0.026947,-0.006454,-1.032135,0.038614,0.005919,-0.013880,0.999161,-0.013641,-0.038604,0.013880,0.999886,0.005919,0.038519,-0.006450,0.999237,0.038604,-0.005919,-0.999237,0.000901,-0.000642,-0.025024,0.003869,0.002394,-0.002817,23.322592,27.785378,-1.000000,-1.000000,-1.000000
482149488.866232,0.000015,-0.015945,-1.025558,0.038614,0.005919,-0.013880,0.999161,-0.013641,-0.038604,0.013880,0.999886,0.005919,0.038519,-0.006450,0.999237,0.038604,-0.005919,-0.999237,0.000901,-0.000642,-0.025024,0.003869,0.002394,-0.002817,23.322592,27.785378,-1.000000,-1.000000,-1.000000
482149488.876237,-0.072235,-0.002029,-1.029083,0.038614,0.005919,-0.013880,0.999161,-0.013641,-0.038604,0.013880,0.999886,0.005919,0.038519,-0.006450,0.999237,0.038604,-0.005919,-0.999237,0.000901,-0.000642,-0.025024,0.003869,0.002394,-0.002817,23.322592,27.785378,-1.000000,-1.000000,-1.000000
482149488.886007,-0.013153,-0.014252,-1.036072,0.038614,0.005919,-0.013880,0.999161,-0.013641,-0.038604,0.013880,0.999886,0.005919,0.038519,-0.006450,0.999237,0.038604,-0.005919,-0.999237,0.000901,-0.000642,-0.025024,0.003869,0.002394,-0.002817,23.322592,27.785378,-1.000000,-1.000000,-1.000000
482149488.896201,0.075150,-0.005981,-1.010483,0.038614,0.005919,-0.013880,0.999161,-0.013641,-0.038604,0.013880,0.999886,0.005919,0.038519,-0.006450,0.999237,0.038604,-0.005919,-0.999237,0.000901,-0.000642,-0.025024,0.003869,0.002394,-0.002817,23.322592,27.785378,-1.000000,-1.000000,-1.000000
482149488.906167,0.177811,-0.003021,-1.035461,0.038614,0.005919,-0.013880,0.999161,-0.013641,-0.038604,0.013880,0.999886,0.005919,0.038519,-0.006450,0.999237,0.038604,-0.005919,-0.999237,0.000901,-0.000642,-0.025024,0.003869,0.002394,-0.002817,23.322592,27.785378,-1.000000,-1.000000,-1.000000
482149488.915325,0.177811,-0.003021,-1.035461,0.038614,0.005919,-0.013880,0.999161,-0.013641,-0.038604,0.013880,0.999886,0.005919,0.038519,-0.006450,0.999237,0.038604,-0.005919,-0.999237,0.000901,-0.000642,-0.025024,0.003869,0.002394,-0.002817,23.322592,27.785378,-1.000000,-1.000000,-1.000000
482149488.926274,0.070847,-0.002365,-1.038956,0.038614,0.005919,-0.013880,0.999161,-0.013641,-0.038604,0.013880,0.999886,0.005919,0.038519,-0.006450,0.999237,0.038604,-0.005919,-0.999237,0.000901,-0.000642,-0.025024,0.003869,0.002394,-0.002817,23.322592,27.785378,-1.000000,-1.000000,-1.000000
482149488.936272,0.123856,-0.018219,-1.007416,0.038614,0.005919,-0.013880,0.999161,-0.013641,-0.038604,0.013880,0.999886,0.005919,0.038519,-0.006450,0.999237,0.038604,-0.005919,-0.999237,0.000901,-0.000642,-0.025024,0.003869,0.002394,-0.002817,23.322592,27.785378,-1.000000,-1.000000,-1.000000
482149488.946328,0.131149,0.003448,-1.023758,0.038614,0.005919,-0.013880,0.999161,-0.013641,-0.038604,0.013880,0.999886,0.005919,0.038519,-0.006450,0.999237,0.038604,-0.005919,-0.999237,0.000901,-0.000642,-0.025024,0.003869,0.002394,-0.002817,23.322592,27.785378,-1.000000,-1.000000,-1.000000
482149488.956220,0.007797,-0.004105,-1.036896,0.022890,0.008511,-0.000101,0.999738,0.000094,-0.022887,0.000101,0.999964,0.008511,0.022887,-0.008511,0.999702,0.022887,-0.008511,-0.999702,0.047959,0.006146,-0.039254,-0.001232,-0.001044,-0.000726,23.322592,27.785378,-1.000000,-1.000000,-1.000000
482149488.966272,-0.093704,-0.004898,-0.996338,0.022886,0.008531,-0.000042,0.999738,0.000154,-0.022883,0.000042,0.999964,0.008531,0.022884,-0.008530,0.999702,0.022883,-0.008531,-0.999702,0.100972,-0.009688,-0.007714,0.002055,0.000187,0.005302,23.322592,27.785378,-1.000000,-1.000000,-1.000000
482149488.976271,-0.119202,0.005310,-1.030060,0.022910,0.008541,0.000097,0.999738,0.000292,-0.022908,-0.000097,0.999964,0.008541,0.022909,-0.008537,0.999701,0.022908,-0.008541,-0.999701,-0.015110,0.004437,-0.037195,0.004321,-0.003410,0.007789,23.322592,27.785378,-1.000000,-1.000000,-1.000000
482149488.986253,-0.024170,-0.009369,-1.029999,0.022910,0.008541,0.000097,0.999738,0.000292,-0.022908,-0.000097,0.999964,0.008541,0.022909,-0.008537,0.999701,0.022908,-0.008541,-0.999701,-0.015110,0.004437,-0.037195,0.004321,-0.003410,0.007789,23.322592,27.785378,-1.000000,-1.000000,-1.000000
482149488.996236,-0.108047,-0.006363,-1.023407,0.022890,0.008562,0.000134,0.999738,0.000330,-0.022887,-0.000134,0.999963,0.008562,0.022889,-0.008556,0.999701,0.022887,-0.008562,-0.999701,-0.116591,0.003664,0.003364,-0.001317,-0.001060,0.000415,23.322592,27.785378,-1.000000,-1.000000,-1.000000
482149489.006232,-0.055756,-0.008728,-1.028015,0.022864,0.008594,0.000122,0.999739,0.000319,-0.022861,-0.000122,0.999963,0.008594,0.022863,-0.008589,0.999702,0.022861,-0.008594,-0.999702,-0.142063,0.013904,-0.030358,-0.001116,-0.002285,-0.003082,23.322592,27.785378,-1.000000,-1.000000,-1.000000
482149489.015379,-0.055756,-0.008728,-1.028015,0.022864,0.008594,0.000122,0.999739,0.000319,-0.022861,-0.000122,0.999963,0.008594,0.022863,-0.008589,0.999702,0.022861,-0.008594,-0.999702,-0.142063,0.013904,-0.030358,-0.001116,-0.002285,-0.003082,23.322592,27.785378,-1.000000,-1.000000,-1.000000
482149489.026279,0.038696,-0.010574,-1.029114,0.022860,0.008636,0.000166,0.999739,0.000363,-0.022857,-0.000166,0.999963,0.008636,0.022859,-0.008630,0.999701,0.022857,-0.008636,-0.999701,-0.047027,-0.000733,-0.030297,0.004319,0.000171,0.007741,23.322592,27.785378,-1.000000,-1.000000,-1.000000
482149489.036188,0.247299,-0.007660,-0.994308,0.022829,0.008699,0.000236,0.999739,0.000435,-0.022826,-0.000236,0.999962,0.008699,0.022829,-0.008691,0.999702,0.022826,-0.008699,-0.999702,-0.078582,-0.000029,-0.028314,0.005997,-0.002295,-0.000363,23.322592,27.785378,-1.000000,-1.000000,-1.000000
482149489.046233,0.109131,-0.005692,-1.021088,0.022830,0.008737,0.000231,0.999739,0.000430,-0.022827,-0.000231,0.999962,0.008737,0.022830,-0.008730,0.999701,0.022827,-0.008737,-0.999701,0.015869,-0.001837,-0.029413,0.002238,0.000129,0.001759,23.322592,27.785378,-1.000000,-1.000000,-1.000000
482149489.056172,0.131332,-0.019638,-1.056473,0.022830,0.008737,0.000231,0.999739,0.000430,-0.022827,-0.000231,0.999962,0.008737,0.022830,-0.008730,0.999701,0.022827,-0.008737,-0.999701,0.015869,-0.001837,-0.029413,0.002238,0.000129,0.001759,23.322592,27.785378,-1.000000,-1.000000,-1.000000
482149489.066234,0.129318,-0.012299,-1.014923,0.022794,0.008716,0.000331,0.999740,0.000529,-0.022791,-0.000331,0.999962,0.008716,0.022795,-0.008706,0.999702,0.022791,-0.008716,-0.999702,0.224508,0.001056,0.005394,-0.002927,-0.003379,0.007412,23.322592,27.785378,-1.000000,-1.000000,-1.000000
482149489.076231,0.018753,-0.005783,-1.021637,0.022795,0.008741,0.000374,0.999740,0.000573,-0.022792,-0.000374,0.999962,0.008741,0.022796,-0.008730,0.999702,0.022792,-0.008741,-0.999702,0.086339,0.003050,-0.021386,0.005661,0.000145,0.005461,23.322592,27.785378,-1.000000,-1.000000,-1.000000
482149489.086236,-0.044067,-0.012527,-1.027267,0.022786,0.008869,0.000489,0.999740,0.000690,-0.022783,-0.000489,0.999961,0.008869,0.022788,-0.008856,0.999701,0.022783,-0.008869,-0.999701,0.106536,-0.003429,-0.015222,0.012373,-0.000995,0.015224,23.322592,27.785378,-1.000000,-1.000000,-1.000000
482149489.096336,-0.124268,-0.001663,-1.030273,0.022786,0.008869,0.000489,0.999740,0.000690,-0.022783,-0.000489,0.999961,0.008869,0.022788,-0.008856,0.999701,0.022783,-0.008869,-0.999701,0.106536,-0.003429,-0.015222,0.012373,-0.000995,0.015224,23.322592,27.785378,-1.000000,-1.000000,-1.000000
482149489.106300,-0.035431,-0.015564,-1.043213,0.022786,0.008939,0.000554,0.999740,0.000758,-0.022783,-0.000554,0.999960,0.008938,0.022789,-0.008923,0.999700,0.022783,-0.008938,-0.999700,-0.004030,0.003155,-0.021936,0.005729,-0.001059,0.004306,23.322592,27.785378,-1.000000,-1.000000,-1.000000
482149489.115521,-0.035431,-0.015564,-1.043213,0.022760,0.009011,0.000667,0.999741,0.000872,-0.022757,-0.000667,0.999959,0.009011,0.022764,-0.008993,0.999700,0.022757,-0.009011,-0.999700,-0.066825,-0.003517,-0.027567,0.006846,-0.001101,0.005502,23.322592,27.785378,-1.000000,-1.000000,-1.000000
482149489.126338,-0.093811,-0.002304,-1.030380,0.022760,0.009011,0.000667,0.999741,0.000872,-0.022757,-0.000667,0.999959,0.009011,0.022764,-0.008993,0.999700,0.022757,-0.009011,-0.999700,-0.066825,-0.003517,-0.027567,0.006846,-0.001101,0.005502,23.322592,27.785378,-1.000000,-1.000000,-1.000000
482149489.136175,-0.068329,-0.006943,-1.030731,0.022733,0.009064,0.000716,0.999741,0.000922,-0.022730,-0.000716,0.999959,0.009063,0.022738,-0.009045,0.999701,0.022730,-0.009063,-0.999701,-0.146998,0.007400,-0.030573,0.004363,-0.002274,0.006563,23.322592,27.785378,-1.000000,-1.000000,-1.000000
482149489.145787,0.034103,-0.011688,-1.036194,0.022745,0.009182,0.000760,0.999741,0.000968,-0.022742,-0.000760,0.999958,0.009182,0.022750,-0.009163,0.999699,0.022742,-0.009182,-0.999699,-0.116553,0.006878,-0.030681,0.007046,0.000061,0.001972,23.322592,27.785378,-1.000000,-1.000000,-1.000000
482149489.156233,0.102829,-0.004684,-1.012726,0.022740,0.009242,0.000782,0.999741,0.000992,-0.022737,-0.000782,0.999957,0.009242,0.022745,-0.009222,0.999699,0.022737,-0.009242,-0.999699,-0.091066,0.002299,-0.031032,0.003289,-0.001097,0.004142,23.322592,27.785378,-1.000000,-1.000000,-1.000000
482149489.166453,0.118027,-0.013519,-1.025299,0.022740,0.009242,0.000782,0.999741,0.000992,-0.022737,-0.000782,0.999957,0.009242,0.022745,-0.009222,0.999699,0.022737,-0.009242,-0.999699,-0.091066,0.002299,-0.031032,0.003289,-0.001097,0.004142,23.322592,27.785378,-1.000000,-1.000000,-1.000000
482149489.176186,0.120514,-0.015396,-1.017365,0.022769,0.009234,0.000800,0.999740,0.001010,-0.022766,-0.000800,0.999957,0.009233,0.022774,-0.009213,0.999698,0.022766,-0.009233,-0.999698,0.011337,-0.002455,-0.036496,0.002013,0.002500,0.005203,23.322592,27.785378,-1.000000,-1.000000,-1.000000
482149489.186269,0.121567,-0.012619,-1.035782,0.022769,0.009299,0.000806,0.999740,0.001017,-0.022766,-0.000806,0.999956,0.009299,0.022775,-0.009278,0.999698,0.022766,-0.009299,-0.999698,0.080063,0.004615,-0.013028,0.005839,-0.001128,0.001925,23.322592,27.785378,-1.000000,-1.000000,-1.000000
482149489.196368,0.030869,-0.004715,-1.027725,0.022754,0.009319,0.000820,0.999741,0.001032,-0.022751,-0.000820,0.999956,0.009319,0.022760,-0.009298,0.999698,0.022751,-0.009319,-0.999698,0.097763,-0.006077,-0.017667,-0.000134,0.001274,0.000408,23.322592,27.785378,-1.000000,-1.000000,-1.000000
482149489.206534,-0.085571,-0.009232,-1.040482,0.022754,0.009319,0.000820,0.999741,0.001032,-0.022751,-0.000820,0.999956,0.009319,0.022760,-0.009298,0.999698,0.022751,-0.009319,-0.999698,0.097763,-0.006077,-0.017667,-0.000134,0.001274,0.000408,23.322592,27.785378,-1.000000,-1.000000,-1.000000
482149489.216220,-0.163239,-0.000244,-1.036499,0.022749,0.009340,0.000819,0.999741,0.001031,-0.022746,-0.000819,0.999956,0.009340,0.022755,-0.009319,0.999698,0.022746,-0.009340,-0.999698,0.098820,-0.003279,-0.036084,0.002348,0.001253,-0.000637,23.322592,27.785378,-1.000000,-1.000000,-1.000000
482149489.226270,-0.163239,-0.000244,-1.036499,0.022761,0.009393,0.000845,0.999740,0.001058,-0.022758,-0.000845,0.999956,0.009393,0.022767,-0.009371,0.999697,0.022758,-0.009393,-0.999697,0.008110,0.004678,-0.028028,-0.000202,0.003672,0.001547,23.322592,27.785378,-1.000000,-1.000000,-1.000000
482149489.236317,-0.034180,-0.003281,-1.005417,0.022761,0.009393,0.000845,0.999740,0.001058,-0.022758,-0.000845,0.999956,0.009393,0.022767,-0.009371,0.999697,0.022758,-0.009393,-0.999697,0.008110,0.004678,-0.028028,-0.000202,0.003672,0.001547,23.322592,27.785378,-1.000000,-1.000000,-1.000000
482149489.246225,-0.052582,0.001190,-1.026962,0.022784,0.009408,0.000859,0.999740,0.001074,-0.022781,-0.000859,0.999955,0.009408,0.022790,-0.009386,0.999696,0.022781,-0.009408,-0.999696,-0.108352,0.000176,-0.040785,0.003355,0.001280,0.002939,23.322592,27.785378,-1.000000,-1.000000,-1.000000
482149489.256269,-0.060532,-0.000839,-1.026459,0.022763,0.009397,0.000970,0.999740,0.001183,-0.022760,-0.000970,0.999955,0.009396,0.022771,-0.009372,0.999697,0.022760,-0.009396,-0.999697,-0.056940,0.006116,-0.005720,-0.001878,-0.001024,0.009747,23.322592,27.785378,-1.000000,-1.000000,-1.000000
482149489.266250,0.020172,-0.010620,-1.013718,0.022780,0.009423,0.000980,0.999740,0.001194,-0.022777,-0.000980,0.999955,0.009423,0.022788,-0.009398,0.999696,0.022777,-0.009423,-0.999696,-0.075359,0.010613,-0.027266,0.003356,0.001267,0.002943,23.322592,27.785378,-1.000000,-1.000000,-1.000000
482149489.276168,0.094040,-0.006775,-1.015182,0.022780,0.009423,0.000980,0.999740,0.001194,-0.022777,-0.000980,0.999955,0.009423,0.022788,-0.009398,0.999696,0.022777,-0.009423,-0.999696,-0.075359,0.010613,-0.027266,0.003356,0.001267,0.002943,23.322592,27.785378,-1.000000,-1.000000,-1.000000
482149489.286236,0.208176,-0.012360,-1.018951,0.022754,0.009447,0.001027,0.999740,0.001241,-0.022751,-0.001026,0.999955,0.009447,0.022762,-0.009421,0.999697,0.022751,-0.009447,-0.999697,-0.083283,0.008608,-0.026762,-0.001207,-0.002335,-0.001946,23.322592,27.785378,-1.000000,-1.000000,-1.000000
482149489.296229,0.110565,-0.010498,-1.013153,0.022771,0.009478,0.001069,0.999740,0.001284,-0.022768,-0.001069,0.999955,0.009478,0.022779,-0.009451,0.999696,0.022768,-0.009478,-0.999696,-0.002596,-0.001142,-0.014022,0.003087,0.002503,0.007612,23.322592,27.785378,-1.000000,-1.000000,-1.000000
482149489.306225,0.097031,-0.013718,-1.018799,0.022799,0.009480,0.001114,0.999739,0.001330,-0.022796,-0.001114,0.999954,0.009480,0.022808,-0.009452,0.999695,0.022796,-0.009480,-0.999695,0.185379,-0.002880,-0.019256,-0.006374,0.001318,0.003611,23.322592,27.785378,-1.000000,-1.000000,-1.000000
482149489.316304,0.034637,-0.009598,-1.026474,0.022799,0.009480,0.001114,0.999739,0.001330,-0.022796,-0.001114,0.999954,0.009480,0.022808,-0.009452,0.999695,0.022796,-0.009480,-0.999695,0.185379,-0.002880,-0.019256,-0.006374,0.001318,0.003611,23.322592,27.785378,-1.000000,-1.000000,-1.000000
482149489.326209,-0.102142,-0.014420,-1.045288,0.022794,0.009545,0.001153,0.999739,0.001370,-0.022791,-0.001153,0.999954,0.009544,0.022803,-0.009516,0.999695,0.022791,-0.009544,-0.999695,0.087774,-0.000954,-0.013458,0.009328,0.000059,0.004443,23.322592,27.785378,-1.000000,-1.000000,-1.000000
482149489.336563,-0.102142,-0.014420,-1.045288,0.022795,0.009634,0.001228,0.999739,0.001447,-0.022792,-0.001228,0.999953,0.009634,0.022805,-0.009604,0.999694,0.022792,-0.009634,-0.999694,0.074239,-0.004083,-0.019105,0.000067,0.000036,-0.003086,23.322592,27.785378,-1.000000,-1.000000,-1.000000
482149489.346420,-0.103699,-0.009979,-0.995895,0.022795,0.009634,0.001228,0.999739,0.001447,-0.022792,-0.001228,0.999953,0.009634,0.022805,-0.009604,0.999694,0.022792,-0.009634,-0.999694,0.074239,-0.004083,-0.019105,0.000067,0.000036,-0.003086,23.322592,27.785378,-1.000000,-1.000000,-1.000000
482149489.356190,0.015884,-0.002045,-1.040298,0.022795,0.009664,0.001298,0.999739,0.001518,-0.022792,-0.001298,0.999952,0.009664,0.022806,-0.009632,0.999694,0.022792,-0.009664,-0.999694,0.011845,0.000067,-0.026780,0.004027,0.001346,0.012376,23.322592,27.785378,-1.000000,-1.000000,-1.000000
482149489.366233,-0.012863,-0.017273,-1.042816,0.022818,0.009733,0.001361,0.999738,0.001583,-0.022815,-0.001361,0.999952,0.009732,0.022829,-0.009699,0.999692,0.022815,-0.009732,-0.999692,-0.126514,-0.000247,0.003797,0.002954,0.000137,0.009986,23.322592,27.785378,-1.000000,-1.000000,-1.000000
482149489.376519,-0.077866,-0.005920,-1.017715,0.022824,0.009803,0.001383,0.999738,0.001607,-0.022821,-0.001383,0.999951,0.009803,0.022835,-0.009769,0.999691,0.022821,-0.009803,-0.999691,-0.006936,0.007758,-0.040607,0.006979,0.001252,0.003131,23.322592,27.785378,-1.000000,-1.000000,-1.000000
482149489.386237,0.038010,-0.014603,-1.036896,0.022824,0.009803,0.001383,0.999738,0.001607,-0.022821,-0.001383,0.999951,0.009803,0.022835,-0.009769,0.999691,0.022821,-0.009803,-0.999691,-0.006936,0.007758,-0.040607,0.006979,0.001252,0.003131,23.322592,27.785378,-1.000000,-1.000000,-1.000000
482149489.396236,0.088165,-0.001083,-1.031128,0.022803,0.009822,0.001408,0.999739,0.001632,-0.022800,-0.001408,0.999951,0.009822,0.022815,-0.009788,0.999692,0.022800,-0.009822,-0.999692,-0.035663,-0.007451,-0.043124,-0.001476,0.002481,0.002675,23.322592,27.785378,-1.000000,-1.000000,-1.000000
482149489.406115,0.217499,-0.003006,-0.986450,0.022830,0.009893,0.001425,0.999738,0.001650,-0.022827,-0.001425,0.999950,0.009893,0.022843,-0.009858,0.999690,0.022827,-0.009893,-0.999690,-0.100693,0.003973,-0.018025,0.009662,0.002393,-0.001445,23.322592,27.785378,-1.000000,-1.000000,-1.000000
482149489.416450,0.128128,-0.001724,-1.043304,0.022831,0.009996,0.001447,0.999738,0.001675,-0.022828,-0.001447,0.999949,0.009996,0.022844,-0.009960,0.999689,0.022828,-0.009996,-0.999689,0.065337,0.008913,-0.031438,0.007989,0.001273,0.006718,23.322592,27.785378,-1.000000,-1.000000,-1.000000
482149489.426173,0.094299,-0.001648,-0.998718,0.022831,0.009996,0.001447,0.999738,0.001675,-0.022828,-0.001447,0.999949,0.009996,0.022844,-0.009960,0.999689,0.022828,-0.009996,-0.999689,0.065337,0.008913,-0.031438,0.007989,0.001273,0.006718,23.322592,27.785378,-1.000000,-1.000000,-1.000000
482149489.436191,0.148346,-0.003983,-0.999313,0.022809,0.010045,0.001463,0.999738,0.001692,-0.022806,-0.001463,0.999949,0.010044,0.022822,-0.010008,0.999689,0.022806,-0.010044,-0.999689,0.194692,0.007038,0.013239,0.002086,-0.004690,0.004141,23.322592,27.785378,-1.000000,-1.000000,-1.000000
482149489.446297,0.148346,-0.003983,-0.999313,0.022805,0.010028,0.001563,0.999738,0.001791,-0.022802,-0.001563,0.999949,0.010028,0.022819,-0.009990,0.999690,0.022802,-0.010028,-0.999690,0.105326,0.008304,-0.043615,0.005372,0.002509,0.010090,23.322592,27.785378,-1.000000,-1.000000,-1.000000
482149489.456182,-0.003403,0.008560,-1.042572,0.022805,0.010028,0.001563,0.999738,0.001791,-0.022802,-0.001563,0.999949,0.010028,0.022819,-0.009990,0.999690,0.022802,-0.010028,-0.999690,0.105326,0.008304,-0.043615,0.005372,0.002509,0.010090,23.322592,27.785378,-1.000000,-1.000000,-1.000000
482149489.466386,-0.084366,0.002075,-1.002655,0.022789,0.010110,0.001575,0.999739,0.001805,-0.022786,-0.001575,0.999948,0.010110,0.022803,-0.010072,0.999689,0.022786,-0.010110,-0.999689,0.071514,0.008462,0.000971,0.010741,-0.001177,0.001019,23.322592,27.785378,-1.000000,-1.000000,-1.000000
482149489.476252,-0.001450,-0.008102,-1.031570,0.022784,0.010173,0.001628,0.999739,0.001859,-0.022781,-0.001628,0.999947,0.010173,0.022798,-0.010133,0.999689,0.022781,-0.010173,-0.999689,-0.026183,0.018733,-0.042883,0.001817,-0.002261,0.008794,23.322592,27.785378,-1.000000,-1.000000,-1.000000
482149489.486237,-0.013596,-0.007202,-1.024521,0.022784,0.010159,0.001702,0.999739,0.001933,-0.022781,-0.001702,0.999947,0.010158,0.022800,-0.010117,0.999689,0.022781,-0.010158,-0.999689,-0.107147,0.012234,-0.002966,-0.003888,0.001293,0.002576,23.322592,27.785378,-1.000000,-1.000000,-1.000000
482149489.496263,-0.099335,-0.009186,-1.021881,0.022784,0.010159,0.001702,0.999739,0.001933,-0.022781,-0.001702,0.999947,0.010158,0.022800,-0.010117,0.999689,0.022781,-0.010158,-0.999689,-0.107147,0.012234,-0.002966,-0.003888,0.001293,0.002576,23.322592,27.785378,-1.000000,-1.000000,-1.000000
482149489.506228,-0.014008,-0.013275,-1.038086,0.022813,0.010140,0.001709,0.999738,0.001940,-0.022810,-0.001709,0.999947,0.010139,0.022828,-0.010098,0.999688,0.022810,-0.010139,-0.999688,-0.024259,0.002037,-0.031882,0.000003,0.001235,-0.001921,23.322592,27.785378,-1.000000,-1.000000,-1.000000
482149489.516226,0.056564,-0.007416,-1.031982,0.022803,0.010134,0.001697,0.999738,0.001928,-0.022799,-0.001697,0.999947,0.010133,0.022818,-0.010092,0.999689,0.022799,-0.010133,-0.999689,-0.036395,0.002931,-0.024832,-0.001338,-0.002320,0.000407,23.322592,27.785378,-1.000000,-1.000000,-1.000000
482149489.526289,0.163681,-0.009857,-1.012909,0.022803,0.010134,0.001697,0.999738,0.001928,-0.022799,-0.001697,0.999947,0.010133,0.022818,-0.010092,0.999689,0.022799,-0.010133,-0.999689,-0.036395,0.002931,-0.024832,-0.001338,-0.002320,0.000407,23.322592,27.785378,-1.000000,-1.000000,-1.000000
482149489.536201,0.154633,-0.008942,-1.008575,0.022820,0.010230,0.001745,0.999738,0.001978,-0.022816,-0.001745,0.999946,0.010230,0.022835,-0.010187,0.999687,0.022816,-0.010230,-0.999687,-0.036824,-0.003045,-0.038399,0.002017,0.000095,0.005248,23.322592,27.785378,-1.000000,-1.000000,-1.000000
482149489.545981,0.154633,-0.008942,-1.008575,0.022820,0.010267,0.001761,0.999738,0.001995,-0.022817,-0.001761,0.999946,0.010267,0.022836,-0.010224,0.999687,0.022817,-0.010267,-0.999687,-0.036824,-0.003008,-0.038399,0.003694,0.000016,-0.002888,23.322592,27.785378,-1.000000,-1.000000,-1.000000
482149489.556304,0.095535,-0.005081,-1.042313,0.022848,0.010364,0.001799,0.999737,0.002035,-0.022845,-0.001799,0.999945,0.010364,0.022865,-0.010320,0.999685,0.022845,-0.010364,-0.999685,0.140836,0.000507,-0.013224,0.005845,0.004819,0.001869,23.322592,27.785378,-1.000000,-1.000000,-1.000000
482149489.566267,0.132660,-0.012329,-1.022491,0.022848,0.010364,0.001799,0.999737,0.002035,-0.022845,-0.001799,0.999945,0.010364,0.022865,-0.010320,0.999685,0.022845,-0.010364,-0.999685,0.140836,0.000507,-0.013224,0.005845,0.004819,0.001869,23.322592,27.785378,-1.000000,-1.000000,-1.000000
482149489.576242,0.104828,0.003281,-1.009796,0.022870,0.010420,0.001778,0.999736,0.002015,-0.022867,-0.001778,0.999944,0.010420,0.022887,-0.010376,0.999684,0.022867,-0.010420,-0.999684,0.131766,0.001478,-0.008891,0.006114,0.001196,-0.002768,23.322592,27.785378,-1.000000,-1.000000,-1.000000
482149489.586362,0.014603,-0.014725,-1.021774,0.022882,0.010449,0.001846,0.999736,0.002085,-0.022879,-0.001846,0.999944,0.010449,0.022899,-0.010404,0.999684,0.022879,-0.010449,-0.999684,0.109781,-0.001880,-0.022808,0.006988,-0.001143,0.003183,23.322592,27.785378,-1.000000,-1.000000,-1.000000
482149489.596176,-0.145477,-0.009964,-1.042114,0.022866,0.010470,0.001862,0.999736,0.002101,-0.022863,-0.001862,0.999943,0.010470,0.022883,-0.010424,0.999684,0.022863,-0.010470,-0.999684,0.081965,0.013750,-0.010112,0.000949,-0.002311,0.002885,23.322592,27.785378,-1.000000,-1.000000,-1.000000
482149489.606225,-0.033112,-0.016022,-0.994507,0.022866,0.010470,0.001862,0.999736,0.002101,-0.022863,-0.001862,0.999943,0.010470,0.022883,-0.010424,0.999684,0.022863,-0.010470,-0.999684,0.081965,0.013750,-0.010112,0.000949,-0.002311,0.002885,23.322592,27.785378,-1.000000,-1.000000,-1.000000
482149489.616230,-0.092804,0.000488,-1.047836,0.022878,0.010461,0.001913,0.999736,0.002152,-0.022875,-0.001913,0.999943,0.010460,0.022896,-0.010414,0.999684,0.022875,-0.010460,-0.999684,-0.008272,-0.004264,-0.022091,0.002022,-0.002295,0.005290,23.322592,27.785378,-1.000000,-1.000000,-1.000000
482149489.626243,-0.039886,-0.014526,-1.032791,0.022867,0.010510,0.001897,0.999736,0.002137,-0.022864,-0.001897,0.999943,0.010510,0.022885,-0.010464,0.999683,0.022864,-0.010510,-0.999683,-0.168341,0.000546,-0.042431,0.007256,-0.002379,-0.001487,23.322592,27.785378,-1.000000,-1.000000,-1.000000
482149489.636237,0.061539,-0.003189,-1.012314,0.022867,0.010510,0.001897,0.999736,0.002137,-0.022864,-0.001897,0.999943,0.010510,0.022885,-0.010464,0.999683,0.022864,-0.010510,-0.999683,-0.168341,0.000546,-0.042431,0.007256,-0.002379,-0.001487,23.322592,27.785378,-1.000000,-1.000000,-1.000000
482149489.646305,0.215103,-0.010284,-1.018555,0.022873,0.010607,0.001951,0.999736,0.002193,-0.022870,-0.001951,0.999942,0.010606,0.022892,-0.010559,0.999682,0.022870,-0.010606,-0.999682,-0.115674,0.011095,-0.048154,0.002022,-0.001102,0.005274,23.322592,27.785378,-1.000000,-1.000000,-1.000000
482149489.656227,0.215103,-0.010284,-1.018555,0.022901,0.010609,0.002004,0.999735,0.002246,-0.022898,-0.002004,0.999942,0.010609,0.022920,-0.010561,0.999682,0.022898,-0.010609,-0.999682,-0.115702,0.011098,-0.048155,-0.002878,0.004897,0.006114,23.322592,27.785378,-1.000000,-1.000000,-1.000000
482149489.666296,0.298920,-0.015305,-1.025131,0.022890,0.010706,0.002053,0.999735,0.002297,-0.022887,-0.002053,0.999941,0.010706,0.022910,-0.010656,0.999681,0.022887,-0.010706,-0.999681,0.038652,0.007517,-0.012633,0.007123,-0.004745,0.000888,23.322592,27.785378,-1.000000,-1.000000,-1.000000
482149489.676179,0.138474,0.003448,-1.032074,0.022890,0.010706,0.002053,0.999735,0.002297,-0.022887,-0.002053,0.999941,0.010706,0.022910,-0.010656,0.999681,0.022887,-0.010706,-0.999681,0.038652,0.007517,-0.012633,0.007123,-0.004745,0.000888,23.322592,27.785378,-1.000000,-1.000000,-1.000000
482149489.686294,0.142197,-0.009171,-1.015152,0.022924,0.010738,0.002068,0.999735,0.002314,-0.022920,-0.002068,0.999940,0.010738,0.022944,-0.010687,0.999680,0.022920,-0.010738,-0.999680,0.192183,0.000453,-0.018875,0.002222,0.001254,0.001729,23.322592,27.785378,-1.000000,-1.000000,-1.000000
482149489.696305,0.097198,0.003342,-0.995682,0.022897,0.010753,0.002061,0.999735,0.002307,-0.022894,-0.002061,0.999940,0.010753,0.022917,-0.010703,0.999680,0.022894,-0.010753,-0.999680,0.115580,0.014201,-0.032394,0.003565,-0.001160,-0.000519,23.322592,27.785378,-1.000000,-1.000000,-1.000000
482149489.705794,-0.017883,-0.005188,-1.017044,0.022898,0.010797,0.002061,0.999735,0.002308,-0.022894,-0.002061,0.999940,0.010796,0.022918,-0.010746,0.999680,0.022894,-0.010796,-0.999680,0.119302,0.001626,-0.015472,0.004976,0.001190,-0.004000,23.322592,27.785378,-1.000000,-1.000000,-1.000000
482149489.716570,-0.112518,-0.005508,-1.031464,0.022898,0.010797,0.002061,0.999735,0.002308,-0.022894,-0.002061,0.999940,0.010796,0.022918,-0.010746,0.999680,0.022894,-0.010796,-0.999680,0.119302,0.001626,-0.015472,0.004976,0.001190,-0.004000,23.322592,27.785378,-1.000000,-1.000000,-1.000000
482149489.726291,-0.160690,-0.008072,-1.032364,0.022860,0.010827,0.002098,0.999736,0.002345,-0.022857,-0.002098,0.999939,0.010827,0.022881,-0.010776,0.999680,0.022857,-0.010827,-0.999680,0.074342,0.014168,0.003998,0.002226,0.000059,0.001747,23.322592,27.785378,-1.000000,-1.000000,-1.000000
482149489.736239,-0.115524,-0.014465,-1.034439,0.022899,0.010831,0.002123,0.999735,0.002371,-0.022895,-0.002123,0.999939,0.010831,0.022920,-0.010779,0.999679,0.022895,-0.010831,-0.999679,-0.040779,0.005643,-0.017365,0.000950,0.002462,0.002823,23.322592,27.785378,-1.000000,-1.000000,-1.000000
482149489.746340,-0.083344,-0.008850,-1.008301,0.022899,0.010831,0.002123,0.999735,0.002371,-0.022895,-0.002123,0.999939,0.010831,0.022920,-0.010779,0.999679,0.022895,-0.010831,-0.999679,-0.040779,0.005643,-0.017365,0.000950,0.002462,0.002823,23.322592,27.785378,-1.000000,-1.000000,-1.000000
482149489.756325,-0.083344,-0.008850,-1.008301,0.022965,0.010867,0.002143,0.999733,0.002392,-0.022962,-0.002142,0.999939,0.010867,0.022987,-0.010815,0.999677,0.022962,-0.010867,-0.999677,-0.183652,0.002795,-0.032687,-0.000057,0.003629,-0.000769,23.322592,27.785378,-1.000000,-1.000000,-1.000000
482149489.766315,0.023605,-0.008911,-1.040741,0.022993,0.010948,0.002181,0.999733,0.002432,-0.022989,-0.002181,0.999938,0.010948,0.023015,-0.010895,0.999676,0.022989,-0.010948,-0.999676,-0.138514,-0.003517,-0.034763,0.015310,0.002422,0.005920,23.322592,27.785378,-1.000000,-1.000000,-1.000000
482149489.776237,0.120392,-0.009613,-1.031052,0.022994,0.011019,0.002175,0.999733,0.002428,-0.022990,-0.002175,0.999937,0.011019,0.023015,-0.010966,0.999675,0.022990,-0.011019,-0.999675,-0.106334,0.002169,-0.008626,0.007191,0.000018,-0.000345,23.322592,27.785378,-1.000000,-1.000000,-1.000000
482149489.786365,0.263474,-0.015518,-1.005875,0.022994,0.011019,0.002175,0.999733,0.002428,-0.022990,-0.002175,0.999937,0.011019,0.023015,-0.010966,0.999675,0.022990,-0.011019,-0.999675,-0.106334,0.002169,-0.008626,0.007191,0.000018,-0.000345,23.322592,27.785378,-1.000000,-1.000000,-1.000000
482149489.796185,0.149918,-0.007263,-1.030273,0.022999,0.011055,0.002234,0.999732,0.002488,-0.022996,-0.002234,0.999936,0.011055,0.023022,-0.011000,0.999674,0.022996,-0.011055,-0.999674,0.000610,0.002144,-0.041067,0.005446,0.003688,0.008914,23.322592,27.785378,-1.000000,-1.000000,-1.000000
482149489.806250,0.146423,-0.015152,-1.023575,0.022994,0.011152,0.002283,0.999732,0.002539,-0.022991,-0.002283,0.999935,0.011151,0.023018,-0.011096,0.999673,0.022991,-0.011151,-0.999673,0.240483,-0.004367,-0.006201,0.000817,-0.001098,0.005213,23.322592,27.785378,-1.000000,-1.000000,-1.000000
482149489.816235,0.114304,-0.006851,-1.045044,0.022950,0.011250,0.002302,0.999733,0.002559,-0.022947,-0.002302,0.999934,0.011250,0.022974,-0.011194,0.999673,0.022947,-0.011250,-0.999673,0.240527,-0.004268,-0.006201,0.011890,-0.004756,0.002313,23.322592,27.785378,-1.000000,-1.000000,-1.000000
482149489.826219,0.021896,-0.005798,-1.025345,0.022950,0.011250,0.002302,0.999733,0.002559,-0.022947,-0.002302,0.999934,0.011250,0.022974,-0.011194,0.999673,0.022947,-0.011250,-0.999673,0.240527,-0.004268,-0.006201,0.011890,-0.004756,0.002313,23.322592,27.785378,-1.000000,-1.000000,-1.000000
482149489.836246,-0.049652,-0.001343,-0.990829,0.022940,0.011366,0.002276,0.999734,0.002536,-0.022936,-0.002276,0.999933,0.011366,0.022964,-0.011311,0.999672,0.022936,-0.011366,-0.999672,0.123487,-0.003786,-0.023903,0.001420,-0.002386,-0.005312,23.322592,27.785378,-1.000000,-1.000000,-1.000000
482149489.847008,-0.101624,0.010315,-1.043625,0.022929,0.011359,0.002296,0.999734,0.002556,-0.022926,-0.002296,0.999933,0.011359,0.022953,-0.011303,0.999673,0.022926,-0.011359,-0.999673,0.091378,0.004508,-0.045371,0.000884,0.000085,0.004026,23.322592,27.785378,-1.000000,-1.000000,-1.000000
482149489.856608,-0.039917,-0.005569,-1.028076,0.022929,0.011359,0.002296,0.999734,0.002556,-0.022926,-0.002296,0.999933,0.011359,0.022953,-0.011303,0.999673,0.022926,-0.011359,-0.999673,0.091378,0.004508,-0.045371,0.000884,0.000085,0.004026,23.322592,27.785378,-1.000000,-1.000000,-1.000000
482149489.865612,-0.039917,-0.005569,-1.028076,0.022897,0.011405,0.002360,0.999734,0.002621,-0.022894,-0.002360,0.999932,0.011405,0.022922,-0.011348,0.999673,0.022894,-0.011405,-0.999673,-0.072546,0.010062,0.008843,0.005781,-0.002333,0.003132,23.322592,27.785378,-1.000000,-1.000000,-1.000000
482149489.876318,-0.082413,-0.000870,-1.003494,0.022914,0.011387,0.002364,0.999734,0.002624,-0.022911,-0.002364,0.999932,0.011387,0.022939,-0.011330,0.999673,0.022911,-0.011387,-0.999673,-0.124534,0.021702,-0.043952,-0.002541,0.001262,0.000302,23.322592,27.785378,-1.000000,-1.000000,-1.000000
482149489.886240,0.038086,-0.001511,-1.013733,0.022915,0.011481,0.002348,0.999734,0.002610,-0.022911,-0.002348,0.999931,0.011480,0.022940,-0.011423,0.999672,0.022911,-0.011480,-0.999672,-0.062828,0.005911,-0.028405,0.003565,0.000033,-0.000539,23.322592,27.785378,-1.000000,-1.000000,-1.000000
482149489.896330,0.132172,-0.001099,-0.989639,0.022915,0.011481,0.002348,0.999734,0.002610,-0.022911,-0.002348,0.999931,0.011480,0.022940,-0.011423,0.999672,0.022911,-0.011480,-0.999672,-0.062828,0.005911,-0.028405,0.003565,0.000033,-0.000539,23.322592,27.785378,-1.000000,-1.000000,-1.000000
482149489.906233,0.318771,-0.010117,-1.025940,0.022926,0.011529,0.002359,0.999734,0.002622,-0.022923,-0.002358,0.999931,0.011529,0.022951,-0.011472,0.999671,0.022923,-0.011529,-0.999671,-0.105335,0.010659,-0.003823,0.003565,0.000033,-0.000539,23.322592,27.785378,-1.000000,-1.000000,-1.000000
482149489.916231,0.165237,-0.003006,-1.020660,0.022899,0.011633,0.002354,0.999734,0.002620,-0.022896,-0.002354,0.999930,0.011633,0.022924,-0.011576,0.999670,0.022896,-0.011633,-0.999670,0.109276,0.010534,0.010031,0.003566,-0.002355,-0.000507,23.322592,27.785378,-1.000000,-1.000000,-1.000000
482149489.926229,0.147491,-0.010971,-1.005112,0.022916,0.011594,0.002335,0.999734,0.002600,-0.022913,-0.002335,0.999930,0.011594,0.022941,-0.011537,0.999670,0.022913,-0.011594,-0.999670,0.109259,0.010495,0.010031,-0.004823,0.001251,-0.002166,23.322592,27.785378,-1.000000,-1.000000,-1.000000
482149489.936234,0.122955,-0.010666,-1.042542,0.022916,0.011594,0.002335,0.999734,0.002600,-0.022913,-0.002335,0.999930,0.011594,0.022941,-0.011537,0.999670,0.022913,-0.011594,-0.999670,0.109259,0.010495,0.010031,-0.004823,0.001251,-0.002166,23.322592,27.785378,-1.000000,-1.000000,-1.000000
482149489.946233,0.032425,-0.007584,-1.020798,0.022972,0.011652,0.002377,0.999733,0.002644,-0.022968,-0.002377,0.999929,0.011652,0.022997,-0.011594,0.999668,0.022968,-0.011652,-0.999668,0.142269,0.008646,-0.020992,0.004571,0.001252,0.003022,23.322592,27.785378,-1.000000,-1.000000,-1.000000
482149489.956254,-0.029007,-0.011215,-1.013733,0.022999,0.011707,0.002371,0.999732,0.002640,-0.022996,-0.002371,0.999929,0.011707,0.023025,-0.011649,0.999667,0.022996,-0.011707,-0.999667,0.124496,0.000735,-0.005445,0.006113,0.003582,-0.002804,23.322592,27.785378,-1.000000,-1.000000,-1.000000
482149489.965367,-0.029007,-0.011215,-1.013733,0.022999,0.011707,0.002371,0.999732,0.002640,-0.022996,-0.002371,0.999929,0.011707,0.023025,-0.011649,0.999667,0.022996,-0.011707,-0.999667,0.124496,0.000735,-0.005445,0.006113,0.003582,-0.002804,23.322592,27.785378,-1.000000,-1.000000,-1.000000
482149489.976459,-0.142319,0.002762,-1.058609,0.022984,0.011686,0.002428,0.999732,0.002696,-0.022980,-0.002428,0.999929,0.011686,0.023010,-0.011627,0.999668,0.022980,-0.011686,-0.999668,0.009445,0.004102,-0.021130,0.004638,0.002436,0.001835,23.322592,27.785378,-1.000000,-1.000000,-1.000000
482149489.986279,-0.011627,-0.014923,-1.009735,0.023001,0.011705,0.002492,0.999732,0.002760,-0.022997,-0.002491,0.999928,0.011705,0.023028,-0.011645,0.999667,0.022997,-0.011705,-0.999667,0.009428,0.004122,-0.021131,0.000947,0.003655,0.002801,23.322592,27.785378,-1.000000,-1.000000,-1.000000
482149489.996246,-0.044922,-0.003616,-1.025482,0.023002,0.011732,0.002457,0.999732,0.002727,-0.022998,-0.002457,0.999928,0.011732,0.023028,-0.011673,0.999667,0.022998,-0.011732,-0.999667,-0.165317,0.014494,-0.058942,-0.003690,-0.001131,-0.000910,23.322592,27.785378,-1.000000,-1.000000,-1.000000
482149490.006235,-0.099228,-0.006638,-1.059784,0.023002,0.011732,0.002457,0.999732,0.002727,-0.022998,-0.002457,0.999928,0.011732,0.023028,-0.011673,0.999667,0.022998,-0.011732,-0.999667,-0.165317,0.014494,-0.058942,-0.003690,-0.001131,-0.000910,23.322592,27.785378,-1.000000,-1.000000,-1.000000
482149490.016246,0.098648,0.003265,-1.004333,0.023008,0.011687,0.002444,0.999732,0.002712,-0.023004,-0.002444,0.999929,0.011687,0.023034,-0.011628,0.999667,0.023004,-0.011687,-0.999667,-0.034631,-0.003236,-0.010068,-0.001208,0.000042,-0.001971,23.322592,27.785378,-1.000000,-1.000000,-1.000000
482149490.026236,0.231537,-0.003281,-1.028351,0.022970,0.011784,0.002493,0.999732,0.002763,-0.022966,-0.002493,0.999927,0.011784,0.022997,-0.011723,0.999667,0.022966,-0.011784,-0.999667,-0.122194,0.005146,-0.060117,0.005839,-0.002344,0.001951,23.322592,27.785378,-1.000000,-1.000000,-1.000000
482149490.036314,0.105225,-0.003540,-1.001907,0.022976,0.011811,0.002492,0.999732,0.002763,-0.022972,-0.002492,0.999927,0.011810,0.023003,-0.011750,0.999666,0.022972,-0.011810,-0.999666,-0.122200,0.005173,-0.060118,0.004897,0.002393,-0.002860,23.322592,27.785378,-1.000000,-1.000000,-1.000000
482149490.046176,0.092957,-0.003006,-1.029861,0.022976,0.011811,0.002492,0.999732,0.002763,-0.022972,-0.002492,0.999927,0.011810,0.023003,-0.011750,0.999666,0.022972,-0.011810,-0.999666,-0.122200,0.005173,-0.060118,0.004897,0.002393,-0.002860,23.322592,27.785378,-1.000000,-1.000000,-1.000000
482149490.056238,0.106949,-0.017578,-1.022049,0.023004,0.011896,0.002535,0.999732,0.002808,-0.023000,-0.002535,0.999926,0.011896,0.023032,-0.011834,0.999665,0.023000,-0.011896,-0.999665,0.208537,0.008615,-0.028686,0.008187,-0.001150,0.003232,23.322592,27.785378,-1.000000,-1.000000,-1.000000
482149490.066176,0.047424,0.004471,-1.020065,0.023010,0.011872,0.002571,0.999731,0.002843,-0.023006,-0.002570,0.999926,0.011871,0.023038,-0.011809,0.999665,0.023006,-0.011871,-0.999665,0.082219,0.008331,-0.002243,-0.002550,0.001261,0.000293,23.322592,27.785378,-1.000000,-1.000000,-1.000000
482149490.076199,0.047424,0.004471,-1.020065,0.023010,0.011872,0.002571,0.999731,0.002843,-0.023006,-0.002570,0.999926,0.011871,0.023038,-0.011809,0.999665,0.023006,-0.011871,-0.999665,0.082219,0.008331,-0.002243,-0.002550,0.001261,0.000293,23.322592,27.785378,-1.000000,-1.000000,-1.000000
482149490.086289,-0.020187,-0.011307,-1.031662,0.023016,0.011897,0.002596,0.999731,0.002869,-0.023012,-0.002595,0.999926,0.011896,0.023045,-0.011833,0.999664,0.023012,-0.011896,-0.999664,0.083937,-0.005682,-0.022385,-0.000001,0.000037,-0.001909,23.322592,27.785378,-1.000000,-1.000000,-1.000000
482149490.096232,-0.084686,0.000931,-1.015289,0.023022,0.011934,0.002611,0.999731,0.002885,-0.023018,-0.002611,0.999925,0.011934,0.023051,-0.011870,0.999664,0.023018,-0.011934,-0.999664,0.083931,-0.005644,-0.022385,0.006911,0.001252,0.004309,23.322592,27.785378,-1.000000,-1.000000,-1.000000
482149490.106335,0.003708,-0.012070,-1.038025,0.023039,0.011985,0.002675,0.999730,0.002950,-0.023035,-0.002674,0.999925,0.011985,0.023069,-0.011920,0.999663,0.023035,-0.011985,-0.999663,-0.043222,0.000678,-0.031999,-0.002618,0.002466,0.001448,23.322592,27.785378,-1.000000,-1.000000,-1.000000
482149490.116552,-0.022614,-0.008652,-1.059052,0.023039,0.011985,0.002675,0.999730,0.002950,-0.023035,-0.002674,0.999925,0.011985,0.023069,-0.011920,0.999663,0.023035,-0.011985,-0.999663,-0.043222,0.000678,-0.031999,-0.002618,0.002466,0.001448,23.322592,27.785378,-1.000000,-1.000000,-1.000000
482149490.126216,-0.091782,-0.014816,-0.999969,0.023055,0.012040,0.002680,0.999730,0.002957,-0.023052,-0.002680,0.999924,0.012040,0.023085,-0.011975,0.999662,0.023052,-0.012040,-0.999662,-0.107738,0.012970,-0.015628,0.013152,0.000002,0.001125,23.322592,27.785378,-1.000000,-1.000000,-1.000000
482149490.136754,0.015488,-0.011917,-1.037308,0.023089,0.012116,0.002679,0.999729,0.002958,-0.023085,-0.002679,0.999923,0.012115,0.023119,-0.012050,0.999660,0.023085,-0.012115,-0.999660,-0.045699,0.003464,-0.059391,0.004963,0.003576,-0.004047,23.322592,27.785378,-1.000000,-1.000000,-1.000000
482149490.146246,0.209000,-0.006561,-1.031601,0.023111,0.012182,0.002652,0.999729,0.002933,-0.023107,-0.002652,0.999922,0.012182,0.023141,-0.012117,0.999659,0.023107,-0.012182,-0.999659,-0.045721,0.003530,-0.059393,0.007164,0.001208,-0.000390,23.322592,27.785378,-1.000000,-1.000000,-1.000000
482149490.156233,0.142349,-0.009003,-0.999619,0.023111,0.012182,0.002652,0.999729,0.002933,-0.023107,-0.002652,0.999922,0.012182,0.023141,-0.012117,0.999659,0.023107,-0.012182,-0.999659,-0.045721,0.003530,-0.059393,0.007164,0.001208,-0.000390,23.322592,27.785378,-1.000000,-1.000000,-1.000000
482149490.166232,0.122238,0.012527,-1.000122,0.023145,0.012213,0.002666,0.999728,0.002948,-0.023141,-0.002666,0.999922,0.012212,0.023175,-0.012147,0.999658,0.023141,-0.012212,-0.999658,-0.007653,0.000295,-0.037650,0.005756,0.001245,0.003061,23.322592,27.785378,-1.000000,-1.000000,-1.000000
482149490.175340,0.122238,0.012527,-1.000122,0.023112,0.012244,0.002687,0.999729,0.002970,-0.023108,-0.002687,0.999921,0.012244,0.023143,-0.012178,0.999658,0.023108,-0.012244,-0.999658,0.185891,0.005683,-0.031943,0.004549,-0.003525,0.003062,23.322592,27.785378,-1.000000,-1.000000,-1.000000
482149490.186343,0.155731,-0.003983,-1.008591,0.023112,0.012244,0.002687,0.999729,0.002970,-0.023108,-0.002687,0.999921,0.012244,0.023143,-0.012178,0.999658,0.023108,-0.012244,-0.999658,0.185891,0.005683,-0.031943,0.004549,-0.003525,0.003062,23.322592,27.785378,-1.000000,-1.000000,-1.000000
482149490.196221,0.094025,0.009125,-1.007614,0.023129,0.012306,0.002778,0.999728,0.003062,-0.023125,-0.002778,0.999920,0.012305,0.023161,-0.012238,0.999657,0.023125,-0.012305,-0.999657,0.099113,0.024833,-0.000465,0.009513,0.001208,0.000906,23.322592,27.785378,-1.000000,-1.000000,-1.000000
482149490.206218,0.024658,-0.014450,-1.007568,0.023135,0.012383,0.002768,0.999728,0.003053,-0.023131,-0.002767,0.999920,0.012382,0.023167,-0.012315,0.999656,0.023131,-0.012382,-0.999656,0.099107,0.024910,-0.000466,0.006023,0.001202,-0.001625,23.322592,27.785378,-1.000000,-1.000000,-1.000000
482149490.216252,-0.062546,0.000900,-1.043121,0.023190,0.012481,0.002745,0.999727,0.003034,-0.023186,-0.002745,0.999918,0.012481,0.023222,-0.012414,0.999653,0.023186,-0.012481,-0.999653,0.070839,0.021605,-0.007961,0.006023,0.002396,-0.001641,23.322592,27.785378,-1.000000,-1.000000,-1.000000
482149490.226255,-0.096741,-0.008316,-1.033386,0.023190,0.012481,0.002745,0.999727,0.003034,-0.023186,-0.002745,0.999918,0.012481,0.023222,-0.012414,0.999653,0.023186,-0.012481,-0.999653,0.070839,0.021605,-0.007961,0.006023,0.002396,-0.001641,23.322592,27.785378,-1.000000,-1.000000,-1.000000
482149490.236302,-0.060333,-0.009659,-1.015640,0.023239,0.012495,0.002803,0.999725,0.003092,-0.023236,-0.002803,0.999918,0.012494,0.023272,-0.012426,0.999652,0.023236,-0.012494,-0.999652,0.001423,-0.001956,-0.007916,0.001595,0.003731,0.012211,23.322592,27.785378,-1.000000,-1.000000,-1.000000
482149490.246224,-0.101578,-0.004196,-1.014297,0.023279,0.012509,0.002805,0.999724,0.003096,-0.023275,-0.002805,0.999918,0.012509,0.023312,-0.012440,0.999651,0.023275,-0.012509,-0.999651,-0.120016,0.004192,-0.033735,-0.002568,0.007227,0.000199,23.322592,27.785378,-1.000000,-1.000000,-1.000000
482149490.256310,-0.088837,-0.009598,-1.071747,0.023279,0.012509,0.002805,0.999724,0.003096,-0.023275,-0.002805,0.999918,0.012509,0.023312,-0.012440,0.999651,0.023275,-0.012509,-0.999651,-0.120016,0.004192,-0.033735,-0.002568,0.007227,0.000199,23.322592,27.785378,-1.000000,-1.000000,-1.000000
482149490.266263,0.010696,-0.013611,-1.003571,0.023290,0.012546,0.002837,0.999724,0.003128,-0.023286,-0.002837,0.999917,0.012545,0.023323,-0.012476,0.999650,0.023286,-0.012545,-0.999650,-0.120027,0.004229,-0.033736,0.006963,0.000046,0.003139,23.322592,27.785378,-1.000000,-1.000000,-1.000000
482149490.276406,0.260437,-0.002014,-1.035370,0.023246,0.012709,0.002877,0.999725,0.003172,-0.023242,-0.002877,0.999915,0.012708,0.023280,-0.012638,0.999649,0.023242,-0.012708,-0.999649,-0.124820,0.008512,-0.014648,0.007030,0.000035,0.001968,23.322592,27.785378,-1.000000,-1.000000,-1.000000
482149490.286161,0.260437,-0.002014,-1.035370,0.023202,0.012784,0.002922,0.999726,0.003217,-0.023198,-0.002921,0.999914,0.012784,0.023237,-0.012712,0.999649,0.023198,-0.012784,-0.999649,-0.112035,0.003186,-0.072098,0.005690,-0.004713,0.004311,23.322592,27.785378,-1.000000,-1.000000,-1.000000
482149490.296217,0.140320,-0.001068,-0.994980,0.023202,0.012784,0.002922,0.999726,0.003217,-0.023198,-0.002921,0.999914,0.012784,0.023237,-0.012712,0.999649,0.023198,-0.012784,-0.999649,-0.112035,0.003186,-0.072098,0.005690,-0.004713,0.004311,23.322592,27.785378,-1.000000,-1.000000,-1.000000
482149490.306224,0.190430,-0.010574,-1.017120,0.023225,0.012877,0.002905,0.999725,0.003203,-0.023221,-0.002905,0.999913,0.012876,0.023260,-0.012805,0.999647,0.023221,-0.012876,-0.999647,-0.012524,-0.000734,-0.003923,0.003473,0.001233,0.000592,23.322592,27.785378,-1.000000,-1.000000,-1.000000
482149490.316239,0.147308,-0.002396,-1.034378,0.023231,0.012859,0.002897,0.999725,0.003195,-0.023227,-0.002897,0.999913,0.012859,0.023266,-0.012788,0.999647,0.023227,-0.012859,-0.999647,0.237210,0.010845,-0.035722,-0.000016,0.001228,-0.001939,23.322592,27.785378,-1.000000,-1.000000,-1.000000
482149490.326232,0.029663,-0.014221,-0.990768,0.023226,0.012866,0.002949,0.999725,0.003247,-0.023222,-0.002948,0.999913,0.012866,0.023262,-0.012794,0.999648,0.023222,-0.012866,-0.999648,0.167208,0.002292,-0.017473,-0.001492,0.000082,0.002700,23.322592,27.785378,-1.000000,-1.000000,-1.000000
482149490.336265,-0.086975,-0.009354,-1.051254,0.023226,0.012866,0.002949,0.999725,0.003247,-0.023222,-0.002948,0.999913,0.012866,0.023262,-0.012794,0.999648,0.023222,-0.012866,-0.999648,0.167208,0.002292,-0.017473,-0.001492,0.000082,0.002700,23.322592,27.785378,-1.000000,-1.000000,-1.000000
482149490.346019,-0.190063,-0.001694,-1.050720,0.023221,0.012847,0.002990,0.999725,0.003287,-0.023217,-0.002990,0.999913,0.012847,0.023257,-0.012774,0.999648,0.023217,-0.012847,-0.999648,0.124091,0.010451,-0.034730,-0.002767,0.000097,0.003808,23.322592,27.785378,-1.000000,-1.000000,-1.000000
482149490.356257,-0.081909,-0.013489,-0.981918,0.023277,0.012826,0.003045,0.999724,0.003343,-0.023273,-0.003045,0.999913,0.012826,0.023313,-0.012751,0.999647,0.023273,-0.012826,-0.999647,-0.110248,0.003472,-0.051607,0.002064,0.002464,0.004027,23.322592,27.785378,-1.000000,-1.000000,-1.000000
482149490.366674,-0.122238,0.004089,-1.047699,0.023255,0.012869,0.003061,0.999724,0.003360,-0.023251,-0.003061,0.999913,0.012868,0.023292,-0.012794,0.999647,0.023251,-0.012868,-0.999647,-0.110226,0.003515,-0.051607,0.008172,-0.002346,0.003234,23.322592,27.785378,-1.000000,-1.000000,-1.000000
482149490.376350,-0.111084,-0.014511,-1.043884,0.023255,0.012869,0.003061,0.999724,0.003360,-0.023251,-0.003061,0.999913,0.012868,0.023292,-0.012794,0.999647,0.023251,-0.012868,-0.999647,-0.110226,0.003515,-0.051607,0.008172,-0.002346,0.003234,23.322592,27.785378,-1.000000,-1.000000,-1.000000
482149490.386234,0.008698,-0.006668,-0.999893,0.023250,0.012926,0.003108,0.999724,0.003408,-0.023246,-0.003108,0.999912,0.012926,0.023288,-0.012850,0.999646,0.023246,-0.012926,-0.999646,-0.105155,-0.000563,0.017728,0.002064,0.000077,0.004059,23.322592,27.785378,-1.000000,-1.000000,-1.000000
482149490.395334,0.008698,-0.006668,-0.999893,0.023289,0.012908,0.003128,0.999723,0.003427,-0.023285,-0.003127,0.999912,0.012907,0.023327,-0.012831,0.999646,0.023285,-0.012907,-0.999646,-0.145523,0.016997,-0.048053,-0.001359,0.003641,0.000309,23.322592,27.785378,-1.000000,-1.000000,-1.000000
482149490.405636,0.153290,-0.006302,-1.037857,0.023289,0.012908,0.003128,0.999723,0.003427,-0.023285,-0.003127,0.999912,0.012907,0.023327,-0.012831,0.999646,0.023285,-0.012907,-0.999646,-0.145523,0.016997,-0.048053,-0.001359,0.003641,0.000309,23.322592,27.785378,-1.000000,-1.000000,-1.000000
482149490.415506,0.309937,-0.016006,-1.010864,0.023311,0.012951,0.003099,0.999723,0.003400,-0.023307,-0.003098,0.999911,0.012950,0.023349,-0.012875,0.999644,0.023307,-0.012950,-0.999644,-0.014610,0.006282,-0.000249,0.001124,0.000040,-0.000689,23.322592,27.785378,-1.000000,-1.000000,-1.000000
482149490.426271,0.169312,-0.003784,-1.004883,0.023356,0.012971,0.003113,0.999721,0.003415,-0.023352,-0.003113,0.999911,0.012971,0.023394,-0.012895,0.999643,0.023352,-0.012971,-0.999643,-0.014654,0.006303,-0.000250,0.002131,0.002454,0.002856,23.322592,27.785378,-1.000000,-1.000000,-1.000000
482149490.436274,0.201370,-0.024429,-1.026016,0.023361,0.013079,0.003151,0.999721,0.003456,-0.023357,-0.003151,0.999910,0.013078,0.023400,-0.013001,0.999642,0.023357,-0.013078,-0.999642,0.286579,-0.002928,-0.011223,0.011325,-0.001095,0.011605,23.322592,27.785378,-1.000000,-1.000000,-1.000000
482149490.446251,0.031693,-0.005066,-1.061661,0.023361,0.013079,0.003151,0.999721,0.003456,-0.023357,-0.003151,0.999910,0.013078,0.023400,-0.013001,0.999642,0.023357,-0.013078,-0.999642,0.286579,-0.002928,-0.011223,0.011325,-0.001095,0.011605,23.322592,27.785378,-1.000000,-1.000000,-1.000000
482149490.456275,-0.033585,-0.006378,-1.017975,0.023427,0.013143,0.003188,0.999720,0.003495,-0.023423,-0.003188,0.999909,0.013143,0.023467,-0.013064,0.999639,0.023423,-0.013143,-0.999639,0.145888,0.009359,-0.005244,0.008168,0.008396,0.003091,23.322592,27.785378,-1.000000,-1.000000,-1.000000
482149490.466272,-0.150772,0.003738,-1.047470,0.023417,0.013158,0.003175,0.999720,0.003482,-0.023413,-0.003175,0.999908,0.013158,0.023457,-0.013080,0.999639,0.023413,-0.013158,-0.999639,0.008279,0.008092,-0.062021,0.005688,-0.001132,0.004263,23.322592,27.785378,-1.000000,-1.000000,-1.000000
482149490.476187,-0.073593,-0.007141,-1.042709,0.023417,0.013158,0.003175,0.999720,0.003482,-0.023413,-0.003175,0.999908,0.013158,0.023457,-0.013080,0.999639,0.023413,-0.013158,-0.999639,0.008279,0.008092,-0.062021,0.005688,-0.001132,0.004263,23.322592,27.785378,-1.000000,-1.000000,-1.000000
482149490.486234,-0.106628,-0.001434,-1.029221,0.023434,0.013217,0.003197,0.999719,0.003506,-0.023430,-0.003197,0.999908,0.013217,0.023474,-0.013138,0.999638,0.023430,-0.013217,-0.999638,0.008263,0.008151,-0.062023,0.004747,0.001218,-0.000516,23.322592,27.785378,-1.000000,-1.000000,-1.000000
482149490.496346,-0.107895,-0.000427,-1.023468,0.023446,0.013253,0.003206,0.999719,0.003515,-0.023441,-0.003205,0.999907,0.013253,0.023486,-0.013174,0.999637,0.023441,-0.013253,-0.999637,-0.174213,0.016991,-0.047833,0.005822,0.000040,0.001905,23.322592,27.785378,-1.000000,-1.000000,-1.000000
482149490.505409,-0.107895,-0.000427,-1.023468,0.023440,0.013291,0.003227,0.999719,0.003537,-0.023436,-0.003226,0.999906,0.013290,0.023481,-0.013211,0.999637,0.023436,-0.013290,-0.999637,-0.097029,0.006149,-0.043072,-0.000218,0.000066,0.001591,23.322592,27.785378,-1.000000,-1.000000,-1.000000
482149490.516380,0.034912,-0.004486,-1.010986,0.023440,0.013291,0.003227,0.999719,0.003537,-0.023436,-0.003226,0.999906,0.013290,0.023481,-0.013211,0.999637,0.023436,-0.013290,-0.999637,-0.097029,0.006149,-0.043072,-0.000218,0.000066,0.001591,23.322592,27.785378,-1.000000,-1.000000,-1.000000
482149490.526189,0.132111,0.004684,-1.004303,0.023479,0.013338,0.003230,0.999718,0.003542,-0.023475,-0.003230,0.999906,0.013338,0.023520,-0.013258,0.999635,0.023475,-0.013338,-0.999635,-0.131370,0.012910,-0.023833,0.002130,0.002454,0.002856,23.322592,27.785378,-1.000000,-1.000000,-1.000000
482149490.536234,0.269348,-0.007477,-1.001724,0.023485,0.013398,0.003241,0.999718,0.003555,-0.023481,-0.003241,0.999905,0.013397,0.023526,-0.013317,0.999635,0.023481,-0.013397,-0.999635,-0.131376,0.012970,-0.023834,0.004547,0.000056,0.003014,23.322592,27.785378,-1.000000,-1.000000,-1.000000
482149490.546230,0.140930,-0.007935,-0.990967,0.023452,0.013529,0.003242,0.999719,0.003559,-0.023448,-0.003242,0.999903,0.013528,0.023494,-0.013449,0.999633,0.023448,-0.013528,-0.999633,0.108662,0.018213,-0.004669,0.009378,0.000036,0.003265,23.322592,27.785378,-1.000000,-1.000000,-1.000000
482149490.556278,0.147095,-0.006317,-1.032394,0.023452,0.013529,0.003242,0.999719,0.003559,-0.023448,-0.003242,0.999903,0.013528,0.023494,-0.013449,0.999633,0.023448,-0.013528,-0.999633,0.108662,0.018213,-0.004669,0.009378,0.000036,0.003265,23.322592,27.785378,-1.000000,-1.000000,-1.000000
482149490.566278,0.102341,-0.013535,-1.007797,0.023447,0.013583,0.003264,0.999719,0.003581,-0.023443,-0.003264,0.999902,0.013582,0.023489,-0.013502,0.999633,0.023443,-0.013582,-0.999633,0.245905,0.006105,-0.002091,0.004480,-0.001127,0.004201,23.322592,27.785378,-1.000000,-1.000000,-1.000000
482149490.576235,-0.064362,-0.004913,-1.030518,0.023420,0.013703,0.003265,0.999719,0.003585,-0.023416,-0.003265,0.999901,0.013702,0.023462,-0.013622,0.999632,0.023416,-0.013702,-0.999632,0.123679,0.007385,-0.032762,0.004680,0.002422,0.000639,23.322592,27.785378,-1.000000,-1.000000,-1.000000
482149490.586243,-0.191620,-0.000626,-1.039185,0.023420,0.013703,0.003265,0.999719,0.003585,-0.023416,-0.003265,0.999901,0.013702,0.023462,-0.013622,0.999632,0.023416,-0.013702,-0.999632,0.123679,0.007385,-0.032762,0.004680,0.002422,0.000639,23.322592,27.785378,-1.000000,-1.000000,-1.000000
482149490.596249,-0.041473,-0.019989,-0.987183,0.023431,0.013696,0.003274,0.999719,0.003594,-0.023427,-0.003273,0.999901,0.013695,0.023474,-0.013615,0.999632,0.023427,-0.013695,-0.999632,0.123668,0.007378,-0.032763,-0.001426,0.002458,0.001496,23.322592,27.785378,-1.000000,-1.000000,-1.000000
482149490.605308,-0.041473,-0.019989,-0.987183,0.023432,0.013748,0.003294,0.999719,0.003615,-0.023428,-0.003294,0.999900,0.013748,0.023475,-0.013667,0.999631,0.023428,-0.013748,-0.999631,-0.087789,0.008834,-0.030887,0.000923,0.000071,0.002825,23.322592,27.785378,-1.000000,-1.000000,-1.000000
482149490.615627,-0.047089,-0.001022,-1.057709,0.023444,0.013725,0.003297,0.999719,0.003618,-0.023439,-0.003297,0.999900,0.013724,0.023487,-0.013643,0.999631,0.023439,-0.013724,-0.999631,-0.215059,0.013099,-0.039554,-0.002567,0.000065,0.000294,23.322592,27.785378,-1.000000,-1.000000,-1.000000
482149490.626244,-0.056122,-0.005875,-1.037781,0.023444,0.013725,0.003297,0.999719,0.003618,-0.023439,-0.003297,0.999900,0.013724,0.023487,-0.013643,0.999631,0.023439,-0.013724,-0.999631,-0.215059,0.013099,-0.039554,-0.002567,0.000065,0.000294,23.322592,27.785378,-1.000000,-1.000000,-1.000000
482149490.636148,0.056992,-0.010071,-1.003738,0.023433,0.013732,0.003338,0.999719,0.003658,-0.023429,-0.003337,0.999900,0.013732,0.023477,-0.013650,0.999631,0.023429,-0.013732,-0.999631,-0.070518,0.012709,-0.058078,-0.004981,-0.003505,0.000216,23.322592,27.785378,-1.000000,-1.000000,-1.000000
482149490.646132,0.164520,0.000900,-1.023682,0.023467,0.013759,0.003326,0.999718,0.003648,-0.023462,-0.003325,0.999900,0.013759,0.023510,-0.013677,0.999630,0.023462,-0.013759,-0.999630,-0.070551,0.012736,-0.058079,0.006155,0.005955,-0.004031,23.322592,27.785378,-1.000000,-1.000000,-1.000000
482149490.656193,0.309006,-0.012039,-1.010010,0.023467,0.013823,0.003346,0.999718,0.003670,-0.023463,-0.003346,0.999899,0.013822,0.023511,-0.013740,0.999629,0.023463,-0.013822,-0.999629,0.033529,0.003751,-0.004109,0.003607,-0.001175,-0.001719,23.322592,27.785378,-1.000000,-1.000000,-1.000000
482149490.666144,0.160873,-0.004959,-1.013123,0.023467,0.013823,0.003346,0.999718,0.003670,-0.023463,-0.003346,0.999899,0.013822,0.023511,-0.013740,0.999629,0.023463,-0.013822,-0.999629,0.033529,0.003751,-0.004109,0.003607,-0.001175,-0.001719,23.322592,27.785378,-1.000000,-1.000000,-1.000000
482149490.676136,0.145309,-0.003403,-1.034485,0.023490,0.013850,0.003318,0.999718,0.003643,-0.023485,-0.003318,0.999899,0.013850,0.023533,-0.013768,0.999628,0.023485,-0.013850,-0.999628,0.141035,0.014750,-0.024053,0.001391,0.001191,-0.005390,23.322592,27.785378,-1.000000,-1.000000,-1.000000
482149490.686139,0.122086,-0.010101,-0.989151,0.023452,0.013926,0.003307,0.999718,0.003633,-0.023447,-0.003307,0.999898,0.013926,0.023496,-0.013844,0.999628,0.023447,-0.013926,-0.999628,0.137426,0.008967,-0.013494,-0.002432,-0.001150,-0.002033,23.322592,27.785378,-1.000000,-1.000000,-1.000000
482149490.696243,0.053665,0.009445,-1.024612,0.023452,0.013935,0.003344,0.999718,0.003670,-0.023448,-0.003343,0.999897,0.013934,0.023496,-0.013852,0.999628,0.023448,-0.013934,-0.999628,0.137426,0.008975,-0.013495,-0.000285,0.001270,0.002746,23.322592,27.785378,-1.000000,-1.000000,-1.000000
482149490.705617,-0.028564,-0.013489,-1.041855,0.023452,0.013935,0.003344,0.999718,0.003670,-0.023448,-0.003343,0.999897,0.013934,0.023496,-0.013852,0.999628,0.023448,-0.013934,-0.999628,0.137426,0.008975,-0.013495,-0.000285,0.001270,0.002746,23.322592,27.785378,-1.000000,-1.000000,-1.000000
482149490.716203,-0.156128,0.003967,-1.020599,0.023475,0.013911,0.003318,0.999718,0.003644,-0.023471,-0.003318,0.999898,0.013911,0.023519,-0.013829,0.999628,0.023471,-0.013911,-0.999628,0.098615,0.003809,0.010477,0.002466,-0.003568,-0.002921,23.322592,27.785378,-1.000000,-1.000000,-1.000000
482149490.725515,-0.156128,0.003967,-1.020599,0.023453,0.014028,0.003288,0.999718,0.003616,-0.023449,-0.003288,0.999896,0.014027,0.023497,-0.013946,0.999627,0.023449,-0.014027,-0.999627,0.030216,0.023473,-0.024986,0.010853,-0.000012,-0.001358,23.322592,27.785378,-1.000000,-1.000000,-1.000000
482149490.736223,-0.027740,-0.003708,-1.052612,0.023453,0.014028,0.003288,0.999718,0.003616,-0.023449,-0.003288,0.999896,0.014027,0.023497,-0.013946,0.999627,0.023449,-0.014027,-0.999627,0.030216,0.023473,-0.024986,0.010853,-0.000012,-0.001358,23.322592,27.785378,-1.000000,-1.000000,-1.000000
482149490.746218,-0.114319,-0.010345,-1.017899,0.023487,0.014063,0.003323,0.999718,0.003653,-0.023482,-0.003323,0.999896,0.014063,0.023531,-0.013981,0.999625,0.023482,-0.014063,-0.999625,-0.179610,0.018030,-0.020974,0.007296,0.001186,-0.002733,23.322592,27.785378,-1.000000,-1.000000,-1.000000
482149490.755755,-0.006744,-0.012054,-1.026016,0.023504,0.014114,0.003269,0.999717,0.003600,-0.023499,-0.003269,0.999895,0.014113,0.023548,-0.014033,0.999624,0.023499,-0.014113,-0.999624,-0.179627,0.018081,-0.020975,0.005014,0.002369,-0.005217,23.322592,27.785378,-1.000000,-1.000000,-1.000000
482149490.766198,0.101364,-0.005981,-1.040955,0.023564,0.014279,0.003238,0.999716,0.003573,-0.023560,-0.003237,0.999893,0.014279,0.023608,-0.014199,0.999620,0.023560,-0.014279,-0.999620,-0.137879,0.003933,-0.018278,0.009844,0.005929,-0.005014,23.322592,27.785378,-1.000000,-1.000000,-1.000000
482149490.776147,0.266006,-0.011414,-0.996078,0.023564,0.014279,0.003238,0.999716,0.003573,-0.023560,-0.003237,0.999893,0.014279,0.023608,-0.014199,0.999620,0.023560,-0.014279,-0.999620,-0.137879,0.003933,-0.018278,0.009844,0.005929,-0.005014,23.322592,27.785378,-1.000000,-1.000000,-1.000000
482149490.786197,0.169876,-0.003891,-1.015533,0.023554,0.014338,0.003276,0.999716,0.003613,-0.023549,-0.003276,0.999892,0.014338,0.023598,-0.014256,0.999620,0.023549,-0.014338,-0.999620,-0.030293,0.002283,-0.026396,0.006627,-0.001096,0.009011,23.322592,27.785378,-1.000000,-1.000000,-1.000000
482149490.796204,0.161102,0.003937,-1.013229,0.023576,0.014414,0.003269,0.999716,0.003608,-0.023571,-0.003269,0.999891,0.014413,0.023621,-0.014332,0.999618,0.023571,-0.014413,-0.999618,0.242435,0.003000,0.003540,0.005953,0.004793,-0.000501,23.322592,27.785378,-1.000000,-1.000000,-1.000000
482149490.806183,0.206329,-0.010223,-1.001602,0.023576,0.014414,0.003269,0.999716,0.003608,-0.023571,-0.003269,0.999891,0.014413,0.023621,-0.014332,0.999618,0.023571,-0.014413,-0.999618,0.242435,0.003000,0.003540,0.005953,0.004793,-0.000501,23.322592,27.785378,-1.000000,-1.000000,-1.000000
482149490.816197,0.106201,0.010986,-1.032166,0.023593,0.014468,0.003275,0.999715,0.003615,-0.023588,-0.003274,0.999890,0.014468,0.023638,-0.014386,0.999617,0.023588,-0.014468,-0.999617,0.242418,0.003054,0.003539,0.008437,-0.000002,-0.001484,23.322592,27.785378,-1.000000,-1.000000,-1.000000
482149490.826200,-0.012375,-0.017960,-1.015579,0.023631,0.014638,0.003287,0.999714,0.003632,-0.023626,-0.003286,0.999887,0.014637,0.023677,-0.014555,0.999614,0.023626,-0.014637,-0.999614,0.137476,0.018574,-0.013616,0.011926,0.003584,0.001000,23.322592,27.785378,-1.000000,-1.000000,-1.000000
482149490.836188,-0.152649,-0.000061,-1.031982,0.023637,0.014686,0.003297,0.999714,0.003644,-0.023632,-0.003297,0.999887,0.014686,0.023683,-0.014603,0.999613,0.023632,-0.014686,-0.999613,0.182697,0.004462,-0.001989,0.002397,0.002411,-0.001829,23.322592,27.785378,-1.000000,-1.000000,-1.000000
482149490.846084,-0.152649,-0.000061,-1.031982,0.023637,0.014686,0.003297,0.999714,0.003644,-0.023632,-0.003297,0.999887,0.014686,0.023683,-0.014603,0.999613,0.023632,-0.014686,-0.999613,0.182697,0.004462,-0.001989,0.002397,0.002411,-0.001829,23.322592,27.785378,-1.000000,-1.000000,-1.000000
482149490.856158,-0.158478,-0.007111,-1.037109,0.023627,0.014717,0.003301,0.999714,0.003648,-0.023622,-0.003301,0.999886,0.014716,0.023673,-0.014634,0.999613,0.023622,-0.014716,-0.999613,-0.035997,-0.003243,-0.015967,0.000988,0.002448,0.001622,23.322592,27.785378,-1.000000,-1.000000,-1.000000
482149490.866151,-0.080719,-0.004776,-1.000412,0.023633,0.014732,0.003311,0.999714,0.003658,-0.023628,-0.003310,0.999886,0.014732,0.023679,-0.014649,0.999612,0.023628,-0.014732,-0.999612,-0.176277,0.014671,-0.032370,0.002130,0.000066,0.002888,23.322592,27.785378,-1.000000,-1.000000,-1.000000
482149490.876226,-0.147293,-0.000092,-1.040405,0.023660,0.014777,0.003389,0.999713,0.003738,-0.023655,-0.003389,0.999885,0.014777,0.023708,-0.014692,0.999611,0.023655,-0.014777,-0.999611,-0.182133,0.007666,-0.037498,0.004412,-0.002311,0.005388,23.322592,27.785378,-1.000000,-1.000000,-1.000000
482149490.886475,-0.077316,-0.020142,-1.052475,0.023660,0.014777,0.003389,0.999713,0.003738,-0.023655,-0.003389,0.999885,0.014777,0.023708,-0.014692,0.999611,0.023655,-0.014777,-0.999611,-0.182133,0.007666,-0.037498,0.004412,-0.002311,0.005388,23.322592,27.785378,-1.000000,-1.000000,-1.000000
482149490.896286,0.243546,-0.007950,-1.015900,0.023644,0.014793,0.003378,0.999714,0.003727,-0.023639,-0.003378,0.999885,0.014793,0.023692,-0.014709,0.999611,0.023639,-0.014793,-0.999611,-0.104358,0.010017,-0.000801,0.001258,-0.002369,-0.003000,23.322592,27.785378,-1.000000,-1.000000,-1.000000
482149490.906235,0.259430,-0.007980,-1.037292,0.023633,0.014895,0.003421,0.999714,0.003772,-0.023629,-0.003421,0.999883,0.014894,0.023682,-0.014809,0.999610,0.023629,-0.014894,-0.999610,-0.100945,-0.005247,-0.052865,0.006894,0.000056,0.004310,23.322592,27.785378,-1.000000,-1.000000,-1.000000
482149490.916164,0.169769,-0.001877,-1.012650,0.023633,0.014895,0.003421,0.999714,0.003772,-0.023629,-0.003421,0.999883,0.014894,0.023682,-0.014809,0.999610,0.023629,-0.014894,-0.999610,-0.100945,-0.005247,-0.052865,0.006894,0.000056,0.004310,23.322592,27.785378,-1.000000,-1.000000,-1.000000
482149490.926250,0.221161,-0.009247,-1.021118,0.023655,0.014982,0.003443,0.999713,0.003797,-0.023650,-0.003443,0.999882,0.014981,0.023705,-0.014896,0.999608,0.023650,-0.014981,-0.999608,0.219895,0.007032,-0.016292,0.014342,0.002381,0.001141,23.322592,27.785378,-1.000000,-1.000000,-1.000000
482149490.936233,0.128815,-0.001450,-1.018982,0.023634,0.015080,0.003433,0.999714,0.003788,-0.023629,-0.003432,0.999880,0.015080,0.023683,-0.014994,0.999607,0.023629,-0.015080,-0.999607,0.235801,0.007099,-0.037685,0.003673,-0.001186,-0.002890,23.322592,27.785378,-1.000000,-1.000000,-1.000000
482149490.946282,0.026306,-0.014389,-1.001663,0.023656,0.015091,0.003415,0.999713,0.003771,-0.023651,-0.003415,0.999880,0.015090,0.023706,-0.015005,0.999606,0.023651,-0.015090,-0.999606,0.146118,0.013213,-0.013043,0.001256,0.001211,-0.003047,23.322592,27.785378,-1.000000,-1.000000,-1.000000
482149490.956038,0.026306,-0.014389,-1.001663,0.023656,0.015091,0.003415,0.999713,0.003771,-0.023651,-0.003415,0.999880,0.015090,0.023706,-0.015005,0.999606,0.023651,-0.015090,-0.999606,0.146118,0.013213,-0.013043,0.001256,0.001211,-0.003047,0.000000,0.000000,-1.000000,-1.000000,-1.000000
482149490.966300,-0.088791,-0.004440,-1.051407,0.023652,0.015089,0.003407,0.999713,0.003763,-0.023647,-0.003406,0.999880,0.015088,0.023701,-0.015003,0.999606,0.023647,-0.015088,-0.999606,0.105168,0.013638,-0.019375,-0.005050,-0.001108,0.001355,0.000000,0.000000,-1.000000,-1.000000,-1.000000
482149490.976240,-0.204483,-0.010681,-1.042725,0.023661,0.015104,0.003422,0.999713,0.003778,-0.023656,-0.003421,0.999880,0.015103,0.023710,-0.015018,0.999606,0.023656,-0.015103,-0.999606,0.002650,0.000714,-0.002057,0.004474,0.001023,0.004171,0.000000,0.000000,-1.000000,-1.000000,-1.000000
482149490.986320,-0.107162,-0.010315,-1.023315,0.023661,0.015104,0.003422,0.999713,0.003778,-0.023656,-0.003421,0.999880,0.015103,0.023710,-0.015018,0.999606,0.023656,-0.015103,-0.999606,0.002650,0.000714,-0.002057,0.004474,0.001023,0.004171,21.750008,26.212791,-1.000000,-1.000000,-1.000000
482149490.996234,-0.152130,0.000839,-1.041672,0.023657,0.015168,0.003426,0.999713,0.003784,-0.023652,-0.003426,0.999879,0.015167,0.023707,-0.015082,0.999605,0.023652,-0.015167,-0.999605,-0.112443,0.010727,-0.051802,0.004608,-0.001385,0.001860,21.750008,26.212791,-1.000000,-1.000000,-1.000000
482149491.006245,-0.121384,-0.009567,-1.032913,0.023650,0.015245,0.003395,0.999713,0.003754,-0.023645,-0.003394,0.999878,0.015245,0.023699,-0.015160,0.999604,0.023645,-0.015245,-0.999604,-0.228128,0.004564,-0.043120,0.008365,-0.000228,-0.000310,21.750008,26.212791,-1.000000,-1.000000,-1.000000
482149491.016209,0.017853,-0.003830,-1.022690,0.023586,0.015333,0.003373,0.999715,0.003734,-0.023581,-0.003373,0.999877,0.015332,0.023635,-0.015248,0.999604,0.023581,-0.015332,-0.999604,-0.175711,0.016171,-0.042067,0.005951,-0.004992,-0.000372,21.750008,26.212791,-1.000000,-1.000000,-1.000000
482149491.026173,0.207245,-0.000656,-1.032745,0.023586,0.015333,0.003373,0.999715,0.003734,-0.023581,-0.003373,0.999877,0.015332,0.023635,-0.015248,0.999604,0.023581,-0.015332,-0.999604,-0.175711,0.016171,-0.042067,0.005951,-0.004992,-0.000372,21.750008,26.212791,-1.000000,-1.000000,-1.000000
482149491.036253,0.191376,0.000381,-1.011368,0.023590,0.015361,0.003329,0.999715,0.003691,-0.023585,-0.003329,0.999876,0.015360,0.023639,-0.015277,0.999604,0.023585,-0.015360,-0.999604,-0.144969,0.005793,-0.033309,0.004809,-0.000223,-0.001670,21.766165,26.228951,-1.000000,-1.000000,-1.000000
482149491.046238,0.203598,-0.018448,-1.027878,0.023586,0.015419,0.003355,0.999715,0.003718,-0.023581,-0.003355,0.999875,0.015418,0.023635,-0.015335,0.999603,0.023581,-0.015418,-0.999603,-0.005728,0.011588,-0.023087,-0.003780,-0.000166,0.000232,21.766165,26.228951,-1.000000,-1.000000,-1.000000
482149491.056309,0.100693,-0.006653,-1.010910,0.023590,0.015429,0.003343,0.999715,0.003706,-0.023585,-0.003343,0.999875,0.015428,0.023639,-0.015345,0.999603,0.023585,-0.015428,-0.999603,0.183660,0.014772,-0.033143,0.002460,-0.000223,-0.002967,21.766165,26.228951,-1.000000,-1.000000,-1.000000
482149491.066150,0.100693,-0.006653,-1.010910,0.023590,0.015429,0.003343,0.999715,0.003706,-0.023585,-0.003343,0.999875,0.015428,0.023639,-0.015345,0.999603,0.023585,-0.015428,-0.999603,0.183660,0.014772,-0.033143,0.002460,-0.000223,-0.002967,21.766165,26.228951,-1.000000,-1.000000,-1.000000
482149491.076340,-0.002747,-0.011047,-1.026749,0.023629,0.015603,0.003372,0.999714,0.003739,-0.023624,-0.003371,0.999873,0.015603,0.023680,-0.015519,0.999599,0.023624,-0.015603,-0.999599,0.179974,-0.002845,-0.028279,0.008432,0.000955,-0.001498,21.766165,26.228951,-1.000000,-1.000000,-1.000000
482149491.086244,-0.083130,-0.015060,-1.033447,0.023639,0.015602,0.003370,0.999714,0.003738,-0.023633,-0.003370,0.999873,0.015602,0.023689,-0.015518,0.999599,0.023633,-0.015602,-0.999599,0.077059,0.008949,-0.011311,-0.003714,0.001017,-0.000954,21.773533,26.236317,-1.000000,-1.000000,-1.000000
482149491.096283,-0.191620,-0.002579,-1.040131,0.023639,0.015602,0.003370,0.999714,0.003738,-0.023633,-0.003370,0.999873,0.015602,0.023689,-0.015518,0.999599,0.023633,-0.015602,-0.999599,0.077059,0.008949,-0.011311,-0.003714,0.001017,-0.000954,21.773533,26.236317,-1.000000,-1.000000,-1.000000
482149491.106235,-0.111954,-0.012772,-1.063370,0.023657,0.015745,0.003355,0.999713,0.003726,-0.023651,-0.003354,0.999870,0.015744,0.023707,-0.015660,0.999596,0.023651,-0.015744,-0.999596,-0.026398,0.004697,-0.027152,0.005749,-0.001380,0.003094,21.773533,26.236317,-1.000000,-1.000000,-1.000000
482149491.116232,-0.125641,-0.002609,-1.023544,0.023649,0.015760,0.003359,0.999713,0.003731,-0.023644,-0.003359,0.999870,0.015760,0.023700,-0.015676,0.999596,0.023644,-0.015760,-0.999596,-0.106774,0.000699,-0.033851,0.003400,-0.002574,0.001813,21.773533,26.236317,-1.000000,-1.000000,-1.000000
482149491.126237,-0.085693,-0.002060,-1.016296,0.023667,0.015749,0.003463,0.999713,0.003835,-0.023662,-0.003463,0.999870,0.015748,0.023719,-0.015662,0.999596,0.023662,-0.015748,-0.999596,-0.135616,0.002976,-0.063774,-0.001768,0.003467,0.007338,21.773533,26.236317,-1.000000,-1.000000,-1.000000
482149491.136325,0.058762,0.001511,-1.031967,0.023667,0.015749,0.003463,0.999713,0.003835,-0.023662,-0.003463,0.999870,0.015748,0.023719,-0.015662,0.999596,0.023662,-0.015748,-0.999596,-0.135616,0.002976,-0.063774,-0.001768,0.003467,0.007338,21.788099,26.250885,-1.000000,-1.000000,-1.000000
482149491.146350,0.186020,0.000397,-1.002960,0.023709,0.015742,0.003472,0.999712,0.003844,-0.023704,-0.003472,0.999870,0.015741,0.023762,-0.015654,0.999595,0.023704,-0.015741,-0.999595,-0.149345,0.013132,-0.023949,-0.001299,0.003394,-0.000861,21.788099,26.250885,-1.000000,-1.000000,-1.000000
482149491.156177,0.319183,-0.009811,-0.996780,0.023716,0.015878,0.003473,0.999711,0.003848,-0.023711,-0.003472,0.999868,0.015877,0.023769,-0.015791,0.999593,0.023711,-0.015877,-0.999593,-0.109404,0.013818,-0.016704,0.007157,0.000971,-0.000389,21.788099,26.250885,-1.000000,-1.000000,-1.000000
482149491.166364,0.175018,-0.005859,-1.021027,0.023709,0.015882,0.003477,0.999712,0.003852,-0.023704,-0.003477,0.999868,0.015882,0.023762,-0.015795,0.999593,0.023704,-0.015882,-0.999593,0.035058,0.017392,-0.032374,-0.002573,-0.000172,0.000295,21.788099,26.250885,-1.000000,-1.000000,-1.000000
482149491.176118,0.175018,-0.005859,-1.021027,0.023709,0.015882,0.003477,0.999712,0.003852,-0.023704,-0.003477,0.999868,0.015882,0.023762,-0.015795,0.999593,0.023704,-0.015882,-0.999593,0.035058,0.017392,-0.032374,-0.002573,-0.000172,0.000295,21.788099,26.250885,-1.000000,-1.000000,-1.000000
482149491.186258,0.089478,-0.010864,-1.023178,0.023688,0.016023,0.003521,0.999712,0.003900,-0.023683,-0.003521,0.999865,0.016022,0.023742,-0.015934,0.999591,0.023683,-0.016022,-0.999591,0.295500,0.006211,0.002811,0.005748,-0.000186,0.003078,21.794596,26.257381,-1.000000,-1.000000,-1.000000
482149491.196247,-0.007309,-0.012146,-1.033813,0.023681,0.016078,0.003500,0.999712,0.003880,-0.023676,-0.003500,0.999865,0.016077,0.023735,-0.015990,0.999590,0.023676,-0.016077,-0.999590,0.151343,0.010218,-0.021436,0.007358,-0.000255,-0.003887,21.794596,26.257381,-1.000000,-1.000000,-1.000000
482149491.206752,-0.094849,-0.007065,-1.012878,0.023681,0.016078,0.003500,0.999712,0.003880,-0.023676,-0.003500,0.999865,0.016077,0.023735,-0.015990,0.999590,0.023676,-0.016077,-0.999590,0.151343,0.010218,-0.021436,0.007358,-0.000255,-0.003887,21.794596,26.257381,-1.000000,-1.000000,-1.000000
482149491.216232,-0.174515,0.002716,-1.026535,0.023699,0.016121,0.003466,0.999712,0.003847,-0.023694,-0.003465,0.999864,0.016121,0.023753,-0.016034,0.999589,0.023694,-0.016121,-0.999589,0.065783,0.005256,-0.023589,-0.001499,0.002232,0.002669,21.794596,26.257381,-1.000000,-1.000000,-1.000000
482149491.226242,-0.048950,-0.007645,-1.025665,0.023703,0.016163,0.003508,0.999712,0.003891,-0.023697,-0.003508,0.999863,0.016162,0.023757,-0.016075,0.999589,0.023697,-0.016162,-0.999589,-0.031006,0.004016,-0.034225,0.005749,-0.002573,0.003110,21.794596,26.257381,-1.000000,-1.000000,-1.000000
482149491.236218,-0.066116,-0.006958,-1.035446,0.023688,0.016124,0.003596,0.999712,0.003977,-0.023683,-0.003596,0.999864,0.016124,0.023743,-0.016034,0.999590,0.023683,-0.016124,-0.999590,-0.198197,0.018840,-0.026946,0.000648,-0.000124,0.007512,21.794596,26.257381,-1.000000,-1.000000,-1.000000
482149491.246257,-0.067245,-0.008926,-1.033554,0.023688,0.016124,0.003596,0.999712,0.003977,-0.023683,-0.003596,0.999864,0.016124,0.023743,-0.016034,0.999590,0.023683,-0.016124,-0.999590,-0.198197,0.018840,-0.026946,0.000648,-0.000124,0.007512,21.801264,26.264050,-1.000000,-1.000000,-1.000000
482149491.256263,0.034683,-0.011581,-1.028381,0.023686,0.016150,0.003612,0.999712,0.003993,-0.023681,-0.003611,0.999863,0.016150,0.023742,-0.016060,0.999589,0.023681,-0.016150,-0.999589,-0.072631,0.008505,-0.026076,-0.001432,0.001027,0.001514,21.801264,26.264050,-1.000000,-1.000000,-1.000000
482149491.266249,0.143280,-0.008972,-0.998581,0.023654,0.016269,0.003661,0.999712,0.004045,-0.023649,-0.003661,0.999861,0.016268,0.023711,-0.016177,0.999588,0.023649,-0.016268,-0.999588,-0.089765,0.009310,-0.035858,0.004808,-0.001417,-0.001654,21.801264,26.264050,-1.000000,-1.000000,-1.000000
482149491.275447,0.143280,-0.008972,-0.998581,0.023654,0.016269,0.003661,0.999712,0.004045,-0.023649,-0.003661,0.999861,0.016268,0.023711,-0.016177,0.999588,0.023649,-0.016268,-0.999588,-0.089765,0.009310,-0.035858,0.004808,-0.001417,-0.001654,21.801264,26.264050,-1.000000,-1.000000,-1.000000
482149491.286492,0.266647,-0.007767,-1.025208,0.023636,0.016290,0.003655,0.999713,0.004039,-0.023631,-0.003655,0.999861,0.016289,0.023693,-0.016198,0.999588,0.023631,-0.016289,-0.999588,-0.090876,0.007363,-0.033966,0.001253,-0.006187,-0.002950,21.801264,26.264050,-1.000000,-1.000000,-1.000000
482149491.296165,0.168808,-0.008865,-1.016495,0.023627,0.016366,0.003622,0.999713,0.004008,-0.023622,-0.003622,0.999860,0.016366,0.023684,-0.016275,0.999587,0.023622,-0.016366,-0.999587,0.119658,0.007394,0.001006,0.002325,-0.001396,-0.000608,21.812452,26.275238,-1.000000,-1.000000,-1.000000
482149491.306243,0.155701,-0.000992,-1.006699,0.023663,0.016404,0.003627,0.999712,0.004014,-0.023658,-0.003626,0.999859,0.016403,0.023720,-0.016313,0.999586,0.023658,-0.016403,-0.999586,0.242989,0.008637,-0.025622,0.000915,0.004609,0.002763,21.812452,26.275238,-1.000000,-1.000000,-1.000000
482149491.316177,0.141098,-0.013138,-1.015182,0.023663,0.016404,0.003627,0.999712,0.004014,-0.023658,-0.003626,0.999859,0.016403,0.023720,-0.016313,0.999586,0.023658,-0.016403,-0.999586,0.242989,0.008637,-0.025622,0.000915,0.004609,0.002763,21.812452,26.275238,-1.000000,-1.000000,-1.000000
482149491.326232,-0.023605,-0.013229,-1.024078,0.023654,0.016494,0.003691,0.999712,0.004080,-0.023648,-0.003691,0.999857,0.016493,0.023712,-0.016401,0.999584,0.023648,-0.016493,-0.999584,0.145160,0.007628,-0.016910,0.005882,0.000986,0.000719,21.812452,26.275238,-1.000000,-1.000000,-1.000000
482149491.336228,-0.123962,0.002228,-1.034195,0.023668,0.016514,0.003706,0.999712,0.004096,-0.023663,-0.003706,0.999857,0.016514,0.023727,-0.016421,0.999584,0.023663,-0.016514,-0.999584,0.132038,0.015522,-0.007115,0.000782,0.001049,0.005153,21.812452,26.275238,-1.000000,-1.000000,-1.000000
482149491.346258,-0.047836,-0.006668,-1.027557,0.023713,0.016536,0.003827,0.999710,0.004218,-0.023708,-0.003827,0.999856,0.016535,0.023774,-0.016439,0.999582,0.023708,-0.016535,-0.999582,-0.047313,0.003306,-0.024496,0.000850,-0.001349,0.004013,21.819033,26.281818,-1.000000,-1.000000,-1.000000
482149491.356201,-0.047913,-0.007645,-1.026566,0.023713,0.016536,0.003827,0.999710,0.004218,-0.023708,-0.003827,0.999856,0.016535,0.023774,-0.016439,0.999582,0.023708,-0.016535,-0.999582,-0.047313,0.003306,-0.024496,0.000850,-0.001349,0.004013,21.819033,26.281818,-1.000000,-1.000000,-1.000000
482149491.366243,-0.114609,-0.007477,-1.029602,0.023711,0.016506,0.003857,0.999710,0.004247,-0.023706,-0.003857,0.999856,0.016505,0.023772,-0.016409,0.999583,0.023706,-0.016505,-0.999583,-0.147668,0.018733,-0.034612,-0.005123,-0.000140,0.002512,21.819033,26.281818,-1.000000,-1.000000,-1.000000
482149491.376230,-0.030411,-0.011353,-1.024506,0.023741,0.016542,0.003844,0.999709,0.004236,-0.023735,-0.003844,0.999856,0.016542,0.023802,-0.016446,0.999581,0.023735,-0.016542,-0.999581,-0.071571,0.009874,-0.027976,0.001116,0.004577,-0.000751,21.819033,26.281818,-1.000000,-1.000000,-1.000000
482149491.386239,-0.030411,-0.011353,-1.024506,0.023741,0.016542,0.003844,0.999709,0.004236,-0.023735,-0.003844,0.999856,0.016542,0.023802,-0.016446,0.999581,0.023735,-0.016542,-0.999581,-0.071571,0.009874,-0.027976,0.001116,0.004577,-0.000751,21.819033,26.281818,-1.000000,-1.000000,-1.000000
482149491.396332,0.064026,-0.003250,-1.021896,0.023739,0.016576,0.003811,0.999709,0.004204,-0.023734,-0.003811,0.999855,0.016575,0.023800,-0.016480,0.999581,0.023734,-0.016575,-0.999581,-0.071646,0.008930,-0.026985,0.008499,-0.002636,-0.002621,21.832117,26.294903,-1.000000,-1.000000,-1.000000
482149491.406161,0.239212,-0.011902,-1.010300,0.023729,0.016626,0.003907,0.999709,0.004300,-0.023724,-0.003906,0.999854,0.016625,0.023792,-0.016527,0.999580,0.023724,-0.016625,-0.999580,-0.054134,0.005272,-0.024925,0.007090,-0.001406,0.000814,21.832117,26.294903,-1.000000,-1.000000,-1.000000
482149491.416283,0.180084,-0.003845,-1.022675,0.023749,0.016641,0.003906,0.999709,0.004300,-0.023744,-0.003905,0.999854,0.016640,0.023812,-0.016543,0.999580,0.023744,-0.016640,-0.999580,0.040282,0.013390,-0.022317,0.003331,0.002211,0.002920,21.832117,26.294903,-1.000000,-1.000000,-1.000000
482149491.426261,0.156265,-0.005081,-1.019241,0.023749,0.016641,0.003906,0.999709,0.004300,-0.023744,-0.003905,0.999854,0.016640,0.023812,-0.016543,0.999580,0.023744,-0.016640,-0.999580,0.040282,0.013390,-0.022317,0.003331,0.002211,0.002920,21.832117,26.294903,-1.000000,-1.000000,-1.000000
482149491.436227,0.190536,-0.008621,-1.018097,0.023816,0.016769,0.004002,0.999707,0.004401,-0.023810,-0.004002,0.999851,0.016768,0.023881,-0.016668,0.999576,0.023810,-0.016768,-0.999576,0.215402,0.004866,-0.010724,0.010578,0.000986,0.003313,21.832117,26.294903,-1.000000,-1.000000,-1.000000
482149491.446233,0.103333,0.005157,-1.017685,0.023797,0.016817,0.004024,0.999707,0.004423,-0.023792,-0.004024,0.999851,0.016816,0.023863,-0.016716,0.999575,0.023792,-0.016816,-0.999575,0.156293,0.012971,-0.023099,0.004540,-0.002569,0.003047,21.832117,26.294903,-1.000000,-1.000000,-1.000000
482149491.456254,-0.126480,-0.008820,-1.047775,0.023777,0.016831,0.004017,0.999708,0.004416,-0.023772,-0.004016,0.999850,0.016831,0.023843,-0.016730,0.999576,0.023772,-0.016831,-0.999576,0.166765,0.008209,-0.018521,-0.002574,0.002215,0.000263,21.840895,26.303680,-1.000000,-1.000000,-1.000000
482149491.466306,-0.204697,-0.009659,-1.037903,0.023777,0.016831,0.004017,0.999708,0.004416,-0.023772,-0.004016,0.999850,0.016831,0.023843,-0.016730,0.999576,0.023772,-0.016831,-0.999576,0.166765,0.008209,-0.018521,-0.002574,0.002215,0.000263,21.840895,26.303680,-1.000000,-1.000000,-1.000000
482149491.476245,-0.098663,-0.008926,-0.997559,0.023792,0.016825,0.004004,0.999707,0.004403,-0.023787,-0.004003,0.999850,0.016824,0.023857,-0.016724,0.999575,0.023787,-0.016824,-0.999575,0.079546,0.021982,-0.018109,0.002391,0.000980,-0.001812,21.840895,26.303680,-1.000000,-1.000000,-1.000000
482149491.486217,-0.143967,-0.001114,-1.047958,0.023805,0.016868,0.003986,0.999707,0.004386,-0.023800,-0.003985,0.999850,0.016867,0.023870,-0.016767,0.999574,0.023800,-0.016867,-0.999574,-0.150280,0.008047,-0.048201,0.003465,0.002190,0.000578,21.840895,26.303680,-1.000000,-1.000000,-1.000000
482149491.496801,-0.143967,-0.001114,-1.047958,0.023831,0.016951,0.003965,0.999707,0.004367,-0.023825,-0.003964,0.999848,0.016950,0.023896,-0.016850,0.999572,0.023825,-0.016950,-0.999572,-0.228522,0.007291,-0.038330,0.007289,0.002143,-0.002748,21.840895,26.303680,-1.000000,-1.000000,-1.000000
482149491.506274,-0.108978,-0.013504,-1.045715,0.023831,0.016951,0.003965,0.999707,0.004367,-0.023825,-0.003964,0.999848,0.016950,0.023896,-0.016850,0.999572,0.023825,-0.016950,-0.999572,-0.228522,0.007291,-0.038330,0.007289,0.002143,-0.002748,21.852747,26.315533,-1.000000,-1.000000,-1.000000
482149491.516243,0.016815,-0.010590,-1.006134,0.023838,0.016986,0.004000,0.999706,0.004404,-0.023832,-0.004000,0.999848,0.016985,0.023903,-0.016885,0.999572,0.023832,-0.016985,-0.999572,-0.167799,0.015871,-0.048387,0.002257,-0.000192,0.000546,21.852747,26.315533,-1.000000,-1.000000,-1.000000
482149491.526235,0.225174,-0.008240,-1.021866,0.023836,0.017001,0.004005,0.999706,0.004409,-0.023830,-0.004004,0.999847,0.017000,0.023902,-0.016900,0.999571,0.023830,-0.017000,-0.999571,-0.132809,0.003496,-0.046144,0.003533,-0.002595,-0.000530,21.852747,26.315533,-1.000000,-1.000000,-1.000000
482149491.536248,0.299393,-0.008423,-1.031021,0.023836,0.017001,0.004005,0.999706,0.004409,-0.023830,-0.004004,0.999847,0.017000,0.023902,-0.016900,0.999571,0.023830,-0.017000,-0.999571,-0.132809,0.003496,-0.046144,0.003533,-0.002595,-0.000530,21.852747,26.315533,-1.000000,-1.000000,-1.000000
482149491.546160,0.183945,0.002380,-1.000198,0.023871,0.017110,0.003999,0.999705,0.004406,-0.023865,-0.003998,0.999846,0.017109,0.023937,-0.017009,0.999569,0.023865,-0.017109,-0.999569,-0.007050,0.006520,-0.006565,0.004873,0.003346,-0.002889,21.852747,26.315533,-1.000000,-1.000000,-1.000000
482149491.556269,0.210251,-0.010361,-1.019806,0.023874,0.017153,0.003999,0.999705,0.004407,-0.023868,-0.003998,0.999845,0.017152,0.023940,-0.017052,0.999568,0.023868,-0.017152,-0.999568,0.201306,0.008913,-0.022298,0.005747,-0.000187,0.003077,21.868155,26.330940,-1.000000,-1.000000,-1.000000
482149491.566266,0.120636,-0.002487,-1.013641,0.023827,0.017157,0.003991,0.999707,0.004399,-0.023821,-0.003991,0.999845,0.017156,0.023893,-0.017056,0.999569,0.023821,-0.017156,-0.999569,0.160124,0.019536,-0.000629,-0.000024,-0.002591,-0.001890,21.868155,26.330940,-1.000000,-1.000000,-1.000000
482149491.576284,0.004074,-0.010757,-1.006897,0.023827,0.017157,0.003991,0.999707,0.004399,-0.023821,-0.003991,0.999845,0.017156,0.023893,-0.017056,0.999569,0.023821,-0.017156,-0.999569,0.160124,0.019536,-0.000629,-0.000024,-0.002591,-0.001890,21.868155,26.330940,-1.000000,-1.000000,-1.000000
482149491.586272,-0.107117,-0.014481,-1.044617,0.023825,0.017161,0.003984,0.999707,0.004392,-0.023819,-0.003984,0.999845,0.017160,0.023891,-0.017060,0.999569,0.023819,-0.017160,-0.999569,0.186431,0.006800,-0.020237,-0.001299,-0.000188,-0.000813,21.868155,26.330940,-1.000000,-1.000000,-1.000000
482149491.596510,-0.113541,-0.004501,-1.029572,0.023843,0.017225,0.003983,0.999706,0.004393,-0.023838,-0.003982,0.999844,0.017225,0.023910,-0.017125,0.999567,0.023838,-0.017225,-0.999567,0.096798,0.014737,-0.014074,0.006886,0.003399,0.004264,21.868155,26.330940,-1.000000,-1.000000,-1.000000
482149491.606270,-0.113541,-0.004501,-1.029572,0.023843,0.017225,0.003983,0.999706,0.004393,-0.023838,-0.003982,0.999844,0.017225,0.023910,-0.017125,0.999567,0.023838,-0.017225,-0.999567,0.096798,0.014737,-0.014074,0.006886,0.003399,0.004264,21.873470,26.336254,-1.000000,-1.000000,-1.000000
482149491.616233,-0.122650,0.004166,-1.039948,0.023858,0.017239,0.004052,0.999706,0.004462,-0.023852,-0.004051,0.999843,0.017238,0.023925,-0.017136,0.999567,0.023852,-0.017238,-0.999567,-0.019778,0.006480,-0.007330,0.001855,-0.000129,0.007574,21.873470,26.336254,-1.000000,-1.000000,-1.000000
482149491.626239,-0.046692,-0.004486,-1.011002,0.023886,0.017304,0.004174,0.999704,0.004586,-0.023880,-0.004174,0.999842,0.017303,0.023955,-0.017199,0.999565,0.023880,-0.017303,-0.999565,-0.137421,0.012802,-0.030006,0.000915,0.001027,0.002811,21.873470,26.336254,-1.000000,-1.000000,-1.000000
482149491.635607,0.033920,-0.003098,-1.065445,0.023911,0.017313,0.004211,0.999704,0.004623,-0.023905,-0.004210,0.999841,0.017312,0.023981,-0.017206,0.999564,0.023905,-0.017312,-0.999564,-0.146555,0.021478,-0.040383,-0.000428,0.003441,0.005058,21.873470,26.336254,-1.000000,-1.000000,-1.000000
482149491.646231,0.157394,-0.010056,-1.023972,0.023911,0.017313,0.004211,0.999704,0.004623,-0.023905,-0.004210,0.999841,0.017312,0.023981,-0.017206,0.999564,0.023905,-0.017312,-0.999564,-0.146555,0.021478,-0.040383,-0.000428,0.003441,0.005058,21.873470,26.336254,-1.000000,-1.000000,-1.000000
482149491.656253,0.316254,-0.009644,-0.978500,0.023918,0.017417,0.004200,0.999703,0.004615,-0.023912,-0.004199,0.999840,0.017416,0.023989,-0.017310,0.999562,0.023912,-0.017416,-0.999562,-0.070604,0.012930,-0.011439,0.003531,0.002179,-0.000594,21.887230,26.350014,-1.000000,-1.000000,-1.000000
482149491.665973,0.197342,0.001419,-1.011993,0.023944,0.017427,0.004193,0.999703,0.004609,-0.023938,-0.004192,0.999839,0.017426,0.024015,-0.017320,0.999562,0.023938,-0.017426,-0.999562,0.009982,0.014328,-0.065883,-0.000092,0.002194,-0.000782,21.887230,26.350014,-1.000000,-1.000000,-1.000000
482149491.676194,0.206390,-0.012222,-1.003525,0.023962,0.017492,0.004159,0.999703,0.004577,-0.023957,-0.004158,0.999838,0.017491,0.024033,-0.017386,0.999560,0.023957,-0.017491,-0.999560,0.292297,0.007847,0.021060,0.002123,-0.001365,0.002905,21.887230,26.350014,-1.000000,-1.000000,-1.000000
482149491.686241,0.086044,-0.007858,-1.012711,0.023962,0.017492,0.004159,0.999703,0.004577,-0.023957,-0.004158,0.999838,0.017491,0.024033,-0.017386,0.999560,0.023957,-0.017491,-0.999560,0.292297,0.007847,0.021060,0.002123,-0.001365,0.002905,21.887230,26.350014,-1.000000,-1.000000,-1.000000
482149491.696312,0.002197,-0.010208,-1.045883,0.023983,0.017474,0.004173,0.999702,0.004591,-0.023977,-0.004172,0.999839,0.017473,0.024053,-0.017367,0.999560,0.023977,-0.017473,-0.999560,0.173365,0.018892,-0.012434,-0.002508,0.001011,-0.000892,21.887230,26.350014,-1.000000,-1.000000,-1.000000
482149491.705547,0.002197,-0.010208,-1.045883,0.024034,0.017594,0.004167,0.999701,0.004589,-0.024028,-0.004167,0.999837,0.017593,0.024104,-0.017487,0.999556,0.024028,-0.017593,-0.999556,0.182363,0.005370,-0.003968,0.004671,0.003378,0.000624,21.887230,26.350014,-1.000000,-1.000000,-1.000000
482149491.716342,-0.085114,-0.011902,-1.013199,0.024034,0.017594,0.004167,0.999701,0.004589,-0.024028,-0.004167,0.999837,0.017593,0.024104,-0.017487,0.999556,0.024028,-0.017593,-0.999556,0.182363,0.005370,-0.003968,0.004671,0.003378,0.000624,21.895525,26.358311,-1.000000,-1.000000,-1.000000
482149491.726281,-0.213547,-0.004776,-1.035568,0.024037,0.017576,0.004165,0.999701,0.004586,-0.024031,-0.004165,0.999837,0.017575,0.024108,-0.017469,0.999557,0.024031,-0.017575,-0.999557,0.062013,0.009716,-0.013154,-0.001434,-0.000167,0.001529,21.895525,26.358311,-1.000000,-1.000000,-1.000000
482149491.736208,-0.081650,-0.009171,-1.040253,0.024001,0.017575,0.004125,0.999702,0.004545,-0.023995,-0.004124,0.999837,0.017574,0.024071,-0.017469,0.999558,0.023995,-0.017574,-0.999558,-0.109109,0.005672,-0.013641,0.001250,-0.002606,-0.002998,21.895525,26.358311,-1.000000,-1.000000,-1.000000
482149491.746236,-0.078659,0.004959,-1.015961,0.024010,0.017618,0.004130,0.999701,0.004552,-0.024004,-0.004129,0.999836,0.017617,0.024081,-0.017512,0.999557,0.024004,-0.017617,-0.999557,-0.237551,0.012841,-0.036012,0.004605,0.001001,0.001828,21.895525,26.358311,-1.000000,-1.000000,-1.000000
482149491.756210,0.057495,-0.002411,-1.028091,0.024010,0.017618,0.004130,0.999701,0.004552,-0.024004,-0.004129,0.999836,0.017617,0.024081,-0.017512,0.999557,0.024004,-0.017617,-0.999557,-0.237551,0.012841,-0.036012,0.004605,0.001001,0.001828,21.895525,26.358311,-1.000000,-1.000000,-1.000000
482149491.766264,0.190033,-0.008316,-0.989960,0.024012,0.017631,0.004149,0.999701,0.004571,-0.024006,-0.004148,0.999836,0.017630,0.024083,-0.017525,0.999556,0.024006,-0.017630,-0.999556,-0.105656,0.008460,-0.040696,0.008497,-0.000250,-0.002653,21.909410,26.372196,-1.000000,-1.000000,-1.000000
482149491.776267,0.321228,-0.011978,-1.018005,0.023993,0.017701,0.004187,0.999702,0.004611,-0.023987,-0.004187,0.999835,0.017700,0.024065,-0.017594,0.999556,0.023987,-0.017700,-0.999556,-0.102646,0.022659,-0.016405,0.008029,-0.002563,0.005577,21.909410,26.372196,-1.000000,-1.000000,-1.000000
482149491.786588,0.197769,-0.008591,-1.024460,0.024023,0.017811,0.004144,0.999701,0.004571,-0.024017,-0.004143,0.999833,0.017810,0.024094,-0.017705,0.999553,0.024017,-0.017810,-0.999553,0.166016,0.009494,0.009593,0.008431,-0.003820,-0.001434,21.909410,26.372196,-1.000000,-1.000000,-1.000000
482149491.796490,0.154480,-0.005936,-1.004761,0.024023,0.017811,0.004144,0.999701,0.004571,-0.024017,-0.004143,0.999833,0.017810,0.024094,-0.017705,0.999553,0.024017,-0.017810,-0.999553,0.166016,0.009494,0.009593,0.008431,-0.003820,-0.001434,21.909410,26.372196,-1.000000,-1.000000,-1.000000
482149491.806263,0.101883,-0.013626,-1.017532,0.024027,0.017855,0.004117,0.999701,0.004544,-0.024021,-0.004116,0.999832,0.017854,0.024098,-0.017750,0.999552,0.024021,-0.017854,-0.999552,0.297208,0.005876,-0.018453,0.002457,0.000969,-0.002983,21.909410,26.372196,-1.000000,-1.000000,-1.000000
482149491.816190,0.101883,-0.013626,-1.017532,0.024012,0.017875,0.004104,0.999702,0.004532,-0.024006,-0.004103,0.999832,0.017875,0.024083,-0.017771,0.999552,0.024006,-0.017875,-0.999552,0.173763,0.009284,-0.024908,0.010712,-0.001422,0.001002,21.919071,26.381855,-1.000000,-1.000000,-1.000000
482149491.826329,0.010468,0.001938,-1.029037,0.024012,0.017875,0.004104,0.999702,0.004532,-0.024006,-0.004103,0.999832,0.017875,0.024083,-0.017771,0.999552,0.024006,-0.017875,-0.999552,0.173763,0.009284,-0.024908,0.010712,-0.001422,0.001002,21.919071,26.381855,-1.000000,-1.000000,-1.000000
482149491.836206,-0.064163,-0.015686,-1.020676,0.024065,0.017912,0.004135,0.999700,0.004565,-0.024059,-0.004134,0.999831,0.017911,0.024136,-0.017806,0.999550,0.024059,-0.017911,-0.999550,0.130421,0.011975,-0.005211,0.000846,0.005812,0.003918,21.919071,26.381855,-1.000000,-1.000000,-1.000000
482149491.846259,-0.179001,0.004562,-1.033630,0.024072,0.017914,0.004159,0.999700,0.004589,-0.024066,-0.004158,0.999831,0.017913,0.024144,-0.017808,0.999550,0.024066,-0.017913,-0.999550,-0.013599,0.019851,-0.029488,0.003665,0.002158,-0.002936,21.919071,26.381855,-1.000000,-1.000000,-1.000000
482149491.856247,-0.054871,-0.007309,-0.988129,0.024107,0.017952,0.004153,0.999699,0.004584,-0.024101,-0.004152,0.999830,0.017951,0.024179,-0.017846,0.999548,0.024101,-0.017951,-0.999548,-0.088264,0.002265,-0.021127,0.002442,0.001982,-0.003005,21.919071,26.381855,-1.000000,-1.000000,-1.000000
482149491.866244,-0.027695,-0.007706,-1.055466,0.024107,0.017952,0.004153,0.999699,0.004584,-0.024101,-0.004152,0.999830,0.017951,0.024179,-0.017846,0.999548,0.024101,-0.017951,-0.999548,-0.088264,0.002265,-0.021127,0.002442,0.001982,-0.003005,21.934971,26.397755,-1.000000,-1.000000,-1.000000
482149491.876242,-0.079498,-0.004013,-1.022675,0.024117,0.017984,0.004112,0.999699,0.004545,-0.024111,-0.004112,0.999830,0.017983,0.024188,-0.017878,0.999548,0.024111,-0.017983,-0.999548,-0.203112,0.022545,-0.034083,-0.005006,0.004431,0.000099,21.934971,26.397755,-1.000000,-1.000000,-1.000000
482149491.886238,0.124680,-0.011200,-1.001617,0.024114,0.017994,0.004100,0.999699,0.004533,-0.024108,-0.004100,0.999830,0.017993,0.024185,-0.017889,0.999547,0.024108,-0.017993,-0.999547,-0.078978,0.010684,0.011419,0.005933,-0.002787,-0.000411,21.934971,26.397755,-1.000000,-1.000000,-1.000000
482149491.896388,0.258987,-0.010696,-1.012039,0.024083,0.018054,0.004096,0.999700,0.004529,-0.024077,-0.004095,0.999829,0.018053,0.024154,-0.017949,0.999547,0.024077,-0.018053,-0.999547,-0.051771,0.010347,-0.055919,0.003384,-0.003949,0.001822,21.934971,26.397755,-1.000000,-1.000000,-1.000000
482149491.906177,0.164383,-0.008820,-1.007050,0.024112,0.018069,0.004110,0.999699,0.004545,-0.024106,-0.004110,0.999828,0.018068,0.024184,-0.017963,0.999546,0.024106,-0.018068,-0.999546,-0.103604,0.014055,-0.023128,-0.001450,0.004426,0.001459,21.934971,26.397755,-1.000000,-1.000000,-1.000000
482149491.916192,0.163177,0.002945,-1.016022,0.024130,0.018065,0.004173,0.999698,0.004608,-0.024124,-0.004172,0.999828,0.018064,0.024203,-0.017958,0.999546,0.024124,-0.018064,-0.999546,0.100556,0.006864,-0.002072,0.000699,0.002071,0.006302,21.948017,26.410801,-1.000000,-1.000000,-1.000000
482149491.926663,0.163177,0.002945,-1.016022,0.024151,0.018124,0.004166,0.999698,0.004602,-0.024144,-0.004165,0.999827,0.018123,0.024223,-0.018017,0.999544,0.024144,-0.018123,-0.999544,0.234843,0.007427,-0.012495,0.000966,0.004416,0.001585,21.948017,26.410801,-1.000000,-1.000000,-1.000000
482149491.936214,0.153915,-0.009003,-1.013489,0.024151,0.018124,0.004166,0.999698,0.004602,-0.024144,-0.004165,0.999827,0.018123,0.024223,-0.018017,0.999544,0.024144,-0.018123,-0.999544,0.234843,0.007427,-0.012495,0.000966,0.004416,0.001585,21.948017,26.410801,-1.000000,-1.000000,-1.000000
482149491.946239,0.081604,0.000961,-1.017960,0.024147,0.018127,0.004208,0.999698,0.004644,-0.024140,-0.004207,0.999827,0.018126,0.024220,-0.018019,0.999544,0.024140,-0.018126,-0.999544,0.140242,0.009306,-0.007505,0.003116,-0.002714,0.006491,21.948017,26.410801,-1.000000,-1.000000,-1.000000
482149491.956232,-0.038712,-0.008575,-1.033798,0.024150,0.018256,0.004251,0.999698,0.004691,-0.024144,-0.004251,0.999824,0.018255,0.024225,-0.018147,0.999542,0.024144,-0.018255,-0.999542,0.129772,0.009252,-0.013947,0.001972,0.004443,0.005162,21.948017,26.410801,-1.000000,-1.000000,-1.000000
482149491.965704,-0.167465,-0.004196,-1.032822,0.024168,0.018304,0.004262,0.999697,0.004703,-0.024162,-0.004261,0.999823,0.018303,0.024244,-0.018195,0.999541,0.024162,-0.018303,-0.999541,0.057442,0.019265,-0.018419,0.004590,0.000820,0.001822,21.948017,26.410801,-1.000000,-1.000000,-1.000000
482149491.976292,-0.127930,-0.005753,-1.037231,0.024168,0.018304,0.004262,0.999697,0.004703,-0.024162,-0.004261,0.999823,0.018303,0.024244,-0.018195,0.999541,0.024162,-0.018303,-0.999541,0.057442,0.019265,-0.018419,0.004590,0.000820,0.001822,21.961353,26.424137,-1.000000,-1.000000,-1.000000
482149491.986236,-0.083282,-0.006882,-1.008316,0.024167,0.018278,0.004317,0.999697,0.004757,-0.024160,-0.004316,0.999824,0.018277,0.024243,-0.018167,0.999541,0.024160,-0.018277,-0.999541,-0.062872,0.009701,-0.034257,-0.004872,0.003216,-0.002227,21.961353,26.424137,-1.000000,-1.000000,-1.000000
482149491.996364,-0.136398,-0.005920,-1.044540,0.024152,0.018310,0.004300,0.999697,0.004741,-0.024146,-0.004300,0.999823,0.018309,0.024228,-0.018200,0.999541,0.024146,-0.018309,-0.999541,-0.191611,0.014113,-0.033281,0.006000,-0.001604,-0.001598,21.961353,26.424137,-1.000000,-1.000000,-1.000000
482149492.006187,-0.061584,-0.015961,-1.050613,0.024152,0.018310,0.004300,0.999697,0.004741,-0.024146,-0.004300,0.999823,0.018309,0.024228,-0.018200,0.999541,0.024146,-0.018309,-0.999541,-0.191611,0.014113,-0.033281,0.006000,-0.001604,-0.001598,21.961353,26.424137,-1.000000,-1.000000,-1.000000
482149492.016203,0.257477,-0.005630,-0.999573,0.024149,0.018374,0.004299,0.999697,0.004741,-0.024143,-0.004298,0.999822,0.018373,0.024226,-0.018263,0.999540,0.024143,-0.018373,-0.999540,-0.107425,0.011491,-0.008776,0.012892,-0.000480,0.004612,21.961353,26.424137,-1.000000,-1.000000,-1.000000
482149492.026404,0.257477,-0.005630,-0.999573,0.024128,0.018432,0.004342,0.999698,0.004786,-0.024122,-0.004342,0.999821,0.018431,0.024205,-0.018321,0.999539,0.024122,-0.018431,-0.999539,-0.107404,0.011549,-0.008777,-0.000393,-0.001617,0.003936,21.979391,26.442177,-1.000000,-1.000000,-1.000000
482149492.036291,0.273285,-0.006638,-1.019974,0.024135,0.018466,0.004394,0.999697,0.004838,-0.024129,-0.004393,0.999820,0.018465,0.024214,-0.018354,0.999538,0.024129,-0.018465,-0.999538,-0.085713,0.002504,-0.051075,0.009402,0.000708,0.002065,21.979391,26.442177,-1.000000,-1.000000,-1.000000
482149492.046265,0.185257,-0.002853,-1.027252,0.024135,0.018466,0.004394,0.999697,0.004838,-0.024129,-0.004393,0.999820,0.018465,0.024214,-0.018354,0.999538,0.024129,-0.018465,-0.999538,-0.085713,0.002504,-0.051075,0.009402,0.000708,0.002065,21.979391,26.442177,-1.000000,-1.000000,-1.000000
482149492.056506,0.203217,-0.011429,-1.017303,0.024136,0.018559,0.004406,0.999697,0.004852,-0.024130,-0.004405,0.999818,0.018558,0.024215,-0.018446,0.999537,0.024130,-0.018558,-0.999537,0.233347,0.012927,-0.000036,0.011885,0.000687,0.001019,21.979391,26.442177,-1.000000,-1.000000,-1.000000
482149492.066235,0.115097,0.006332,-1.016022,0.024149,0.018610,0.004452,0.999696,0.004900,-0.024142,-0.004451,0.999817,0.018609,0.024229,-0.018495,0.999535,0.024142,-0.018609,-0.999535,0.161115,0.015755,-0.027717,0.007054,0.001901,0.000752,21.979391,26.442177,-1.000000,-1.000000,-1.000000
482149492.076262,0.007782,-0.012833,-1.022202,0.024134,0.018642,0.004446,0.999697,0.004895,-0.024127,-0.004446,0.999816,0.018641,0.024214,-0.018528,0.999535,0.024127,-0.018641,-0.999535,0.179089,0.007212,-0.017768,0.002357,-0.002874,-0.001778,21.992582,26.455368,-1.000000,-1.000000,-1.000000
482149492.086236,-0.107224,-0.006516,-1.038879,0.024134,0.018642,0.004446,0.999697,0.004895,-0.024127,-0.004446,0.999816,0.018641,0.024214,-0.018528,0.999535,0.024127,-0.018641,-0.999535,0.179089,0.007212,-0.017768,0.002357,-0.002874,-0.001778,21.992582,26.455368,-1.000000,-1.000000,-1.000000
482149492.096239,-0.223358,-0.008896,-1.038055,0.024114,0.018671,0.004471,0.999697,0.004920,-0.024107,-0.004470,0.999816,0.018670,0.024195,-0.018557,0.999535,0.024107,-0.018670,-0.999535,0.090990,0.025002,-0.016487,0.007054,-0.000486,0.000784,21.992582,26.455368,-1.000000,-1.000000,-1.000000
482149492.106235,-0.094269,-0.014938,-1.008865,0.024104,0.018753,0.004461,0.999698,0.004912,-0.024097,-0.004460,0.999814,0.018752,0.024185,-0.018639,0.999534,0.024097,-0.018752,-0.999534,-0.016315,0.005920,-0.022668,0.005914,-0.002879,-0.000418,21.992582,26.455368,-1.000000,-1.000000,-1.000000
482149492.116219,-0.127747,0.001953,-1.055786,0.024104,0.018753,0.004461,0.999698,0.004912,-0.024097,-0.004460,0.999814,0.018752,0.024185,-0.018639,0.999534,0.024097,-0.018752,-0.999534,-0.016315,0.005920,-0.022668,0.005914,-0.002879,-0.000418,21.992582,26.455368,-1.000000,-1.000000,-1.000000
482149492.126261,-0.111313,-0.013275,-1.020599,0.024067,0.018832,0.004509,0.999698,0.004961,-0.024061,-0.004508,0.999813,0.018831,0.024149,-0.018717,0.999533,0.024061,-0.018831,-0.999533,-0.247419,0.009935,-0.038522,0.005645,-0.000449,0.004234,22.008694,26.471478,-1.000000,-1.000000,-1.000000
482149492.136163,-0.111313,-0.013275,-1.020599,0.024074,0.018803,0.004512,0.999698,0.004963,-0.024067,-0.004511,0.999813,0.018801,0.024156,-0.018687,0.999534,0.024067,-0.018801,-0.999534,-0.118336,0.003863,-0.009332,-0.001468,0.000754,0.001500,22.008694,26.471478,-1.000000,-1.000000,-1.000000
482149492.146314,0.016800,-0.004822,-1.021774,0.024097,0.018880,0.004575,0.999697,0.005029,-0.024090,-0.004574,0.999811,0.018879,0.024180,-0.018763,0.999532,0.024090,-0.018879,-0.999532,-0.151836,0.020832,-0.056255,0.002064,0.001874,0.002834,22.008694,26.471478,-1.000000,-1.000000,-1.000000
482149492.156219,0.224716,-0.009338,-1.032578,0.024097,0.018880,0.004575,0.999697,0.005029,-0.024090,-0.004574,0.999811,0.018879,0.024180,-0.018763,0.999532,0.024090,-0.018879,-0.999532,-0.151836,0.020832,-0.056255,0.002064,0.001874,0.002834,22.008694,26.471478,-1.000000,-1.000000,-1.000000
482149492.166246,0.333038,-0.012833,-1.018265,0.024102,0.018905,0.004606,0.999697,0.005061,-0.024096,-0.004606,0.999811,0.018904,0.024187,-0.018788,0.999531,0.024096,-0.018904,-0.999531,-0.135408,0.005629,-0.021068,0.000857,0.000685,0.002787,22.008694,26.471478,-1.000000,-1.000000,-1.000000
482149492.176286,0.182037,-0.016739,-1.028244,0.024120,0.018914,0.004571,0.999697,0.005026,-0.024114,-0.004570,0.999811,0.018913,0.024204,-0.018797,0.999530,0.024114,-0.018913,-0.999530,0.200603,0.009575,-0.033047,0.000051,0.000627,-0.004303,22.023643,26.486427,-1.000000,-1.000000,-1.000000
482149492.186292,0.070877,-0.003357,-1.039932,0.024154,0.018942,0.004515,0.999696,0.004972,-0.024148,-0.004515,0.999810,0.018941,0.024237,-0.018826,0.999529,0.024148,-0.018941,-0.999529,0.308891,0.006108,-0.018736,0.004679,0.006606,-0.000618,22.023643,26.486427,-1.000000,-1.000000,-1.000000
482149492.196320,-0.024170,-0.013123,-1.013428,0.024154,0.018942,0.004515,0.999696,0.004972,-0.024148,-0.004515,0.999810,0.018941,0.024237,-0.018826,0.999529,0.024148,-0.018941,-0.999529,0.308891,0.006108,-0.018736,0.004679,0.006606,-0.000618,22.023643,26.486427,-1.000000,-1.000000,-1.000000
482149492.206181,-0.089066,-0.005173,-1.028107,0.024182,0.019014,0.004584,0.999695,0.005042,-0.024175,-0.004583,0.999809,0.019013,0.024266,-0.018896,0.999527,0.024175,-0.019013,-0.999527,0.157862,0.002274,-0.028717,0.000588,-0.000466,0.007488,22.023643,26.486427,-1.000000,-1.000000,-1.000000
482149492.216260,-0.212112,-0.004852,-1.044220,0.024182,0.019023,0.004582,0.999695,0.005041,-0.024176,-0.004581,0.999809,0.019022,0.024267,-0.018906,0.999527,0.024176,-0.019022,-0.999527,0.046701,0.015665,-0.040406,0.002332,0.001831,-0.001851,22.023643,26.486427,-1.000000,-1.000000,-1.000000
482149492.226163,-0.111710,-0.016586,-1.051666,0.024182,0.019023,0.004582,0.999695,0.005041,-0.024176,-0.004581,0.999809,0.019022,0.024267,-0.018906,0.999527,0.024176,-0.019022,-0.999527,0.046701,0.015665,-0.040406,0.002332,0.001831,-0.001851,22.023643,26.486427,-1.000000,-1.000000,-1.000000
482149492.236267,-0.109863,-0.006607,-1.044891,0.024217,0.019059,0.004569,0.999694,0.005029,-0.024210,-0.004568,0.999808,0.019058,0.024301,-0.018941,0.999525,0.024210,-0.019058,-0.999525,-0.113275,0.013885,-0.028581,-0.001359,0.001857,-0.000868,22.032494,26.495277,-1.000000,-1.000000,-1.000000
482149492.246026,-0.109863,-0.006607,-1.044891,0.024223,0.019096,0.004568,0.999694,0.005029,-0.024216,-0.004567,0.999807,0.019095,0.024307,-0.018979,0.999524,0.024216,-0.019095,-0.999524,-0.236328,0.014243,-0.044696,0.003406,0.001847,0.000554,22.032494,26.495277,-1.000000,-1.000000,-1.000000
482149492.256330,-0.099716,-0.002167,-1.011307,0.024213,0.019150,0.004507,0.999695,0.004969,-0.024206,-0.004506,0.999806,0.019149,0.024297,-0.019034,0.999524,0.024206,-0.019149,-0.999524,-0.135916,0.002563,-0.052143,0.005823,-0.002938,0.000743,22.032494,26.495277,-1.000000,-1.000000,-1.000000
482149492.266230,0.044724,-0.001572,-1.027893,0.024213,0.019150,0.004507,0.999695,0.004969,-0.024206,-0.004506,0.999806,0.019149,0.024297,-0.019034,0.999524,0.024206,-0.019149,-0.999524,-0.135916,0.002563,-0.052143,0.005823,-0.002938,0.000743,22.032494,26.495277,-1.000000,-1.000000,-1.000000
