Timestamp,Accel_X,Accel_Y,Accel_Z,Roll,Pitch,Yaw,RM11,RM12,RM13,RM21,RM22,RM23,RM31,RM32,RM33,GravAcc_X,GravAcc_Y,GravAcc_Z,UserAcc_X,UserAcc_Y,UserAcc_Z,RotRate_X,RotRate_Y,RotRate_Z,MagHeading,TrueHeading,HeadingAccuracy,Course,Speed
482149023.709105,0.031570,-0.008621,-1.023758,0.037624,0.005165,-0.005914,0.999276,-0.005716,-0.037615,0.005914,0.999969,0.005165,0.037584,-0.005384,0.999279,0.037615,-0.005165,-0.999279,0.002088,0.000557,-0.027912,0.000057,-0.000601,-0.000001,23.253735,27.716518,-1.000000,-1.000000,-1.000000
482149023.719099,0.037384,-0.006546,-1.021469,0.037624,0.005165,-0.005914,0.999276,-0.005716,-0.037615,0.005914,0.999969,0.005165,0.037584,-0.005384,0.999279,0.037615,-0.005165,-0.999279,0.002088,0.000557,-0.027912,0.000057,-0.000601,-0.000001,23.253735,27.716518,-1.000000,-1.000000,-1.000000
482149023.729059,0.039124,-0.005493,-1.016525,0.037624,0.005165,-0.005914,0.999276,-0.005716,-0.037615,0.005914,0.999969,0.005165,0.037584,-0.005384,0.999279,0.037615,-0.005165,-0.999279,0.002088,0.000557,-0.027912,0.000057,-0.000601,-0.000001,23.253735,27.716518,-1.000000,-1.000000,-1.000000
482149023.739187,0.043915,-0.001617,-1.030869,0.037624,0.005165,-0.005914,0.999276,-0.005716,-0.037615,0.005914,0.999969,0.005165,0.037584,-0.005384,0.999279,0.037615,-0.005165,-0.999279,0.002088,0.000557,-0.027912,0.000057,-0.000601,-0.000001,23.253735,27.716518,-1.000000,-1.000000,-1.000000
482149023.749227,0.043854,-0.010559,-1.033661,0.037624,0.005165,-0.005914,0.999276,-0.005716,-0.037615,0.005914,0.999969,0.005165,0.037584,-0.005384,0.999279,0.037615,-0.005165,-0.999279,0.002088,0.000557,-0.027912,0.000057,-0.000601,-0.000001,23.253735,27.716518,-1.000000,-1.000000,-1.000000
482149023.759102,0.043854,-0.010559,-1.033661,0.037624,0.005165,-0.005914,0.999276,-0.005716,-0.037615,0.005914,0.999969,0.005165,0.037584,-0.005384,0.999279,0.037615,-0.005165,-0.999279,0.002088,0.000557,-0.027912,0.000057,-0.000601,-0.000001,23.253735,27.716518,-1.000000,-1.000000,-1.000000
482149023.768240,0.034317,-0.010529,-1.020645,0.037624,0.005165,-0.005914,0.999276,-0.005716,-0.037615,0.005914,0.999969,0.005165,0.037584,-0.005384,0.999279,0.037615,-0.005165,-0.999279,0.002088,0.000557,-0.027912,0.000057,-0.000601,-0.000001,23.253735,27.716518,-1.000000,-1.000000,-1.000000
482149023.779123,0.035141,-0.009705,-1.036163,0.037624,0.005165,-0.005914,0.999276,-0.005716,-0.037615,0.005914,0.999969,0.005165,0.037584,-0.005384,0.999279,0.037615,-0.005165,-0.999279,0.002088,0.000557,-0.027912,0.000057,-0.000601,-0.000001,23.253735,27.716518,-1.000000,-1.000000,-1.000000
482149023.790337,0.021393,-0.002899,-1.033157,0.037624,0.005165,-0.005914,0.999276,-0.005716,-0.037615,0.005914,0.999969,0.005165,0.037584,-0.005384,0.999279,0.037615,-0.005165,-0.999279,0.002088,0.000557,-0.027912,0.000057,-0.000601,-0.000001,23.253735,27.716518,-1.000000,-1.000000,-1.000000
482149023.798998,0.042847,-0.011353,-1.015259,0.037624,0.005165,-0.005914,0.999276,-0.005716,-0.037615,0.005914,0.999969,0.005165,0.037584,-0.005384,0.999279,0.037615,-0.005165,-0.999279,0.002088,0.000557,-0.027912,0.000057,-0.000601,-0.000001,23.253735,27.716518,-1.000000,-1.000000,-1.000000
482149023.809126,0.037369,-0.005737,-1.038971,0.037624,0.005165,-0.005914,0.999276,-0.005716,-0.037615,0.005914,0.999969,0.005165,0.037584,-0.005384,0.999279,0.037615,-0.005165,-0.999279,0.002088,0.000557,-0.027912,0.000057,-0.000601,-0.000001,23.253735,27.716518,-1.000000,-1.000000,-1.000000
482149023.819117,0.047379,-0.009430,-1.025711,0.037624,0.005165,-0.005914,0.999276,-0.005716,-0.037615,0.005914,0.999969,0.005165,0.037584,-0.005384,0.999279,0.037615,-0.005165,-0.999279,0.002088,0.000557,-0.027912,0.000057,-0.000601,-0.000001,23.253735,27.716518,-1.000000,-1.000000,-1.000000
482149023.829225,0.029800,-0.006699,-1.026794,0.037624,0.005165,-0.005914,0.999276,-0.005716,-0.037615,0.005914,0.999969,0.005165,0.037584,-0.005384,0.999279,0.037615,-0.005165,-0.999279,0.002088,0.000557,-0.027912,0.000057,-0.000601,-0.000001,23.253735,27.716518,-1.000000,-1.000000,-1.000000
482149023.839089,0.029510,-0.007629,-1.021942,0.037624,0.005165,-0.005914,0.999276,-0.005716,-0.037615,0.005914,0.999969,0.005165,0.037584,-0.005384,0.999279,0.037615,-0.005165,-0.999279,0.002088,0.000557,-0.027912,0.000057,-0.000601,-0.000001,23.253735,27.716518,-1.000000,-1.000000,-1.000000
482149023.849191,0.025513,-0.008865,-1.039642,0.037624,0.005165,-0.005914,0.999276,-0.005716,-0.037615,0.005914,0.999969,0.005165,0.037584,-0.005384,0.999279,0.037615,-0.005165,-0.999279,0.002088,0.000557,-0.027912,0.000057,-0.000601,-0.000001,23.253735,27.716518,-1.000000,-1.000000,-1.000000
482149023.858978,0.025513,-0.008865,-1.039642,0.037624,0.005165,-0.005914,0.999276,-0.005716,-0.037615,0.005914,0.999969,0.005165,0.037584,-0.005384,0.999279,0.037615,-0.005165,-0.999279,0.002088,0.000557,-0.027912,0.000057,-0.000601,-0.000001,23.253735,27.716518,-1.000000,-1.000000,-1.000000
482149023.869204,0.039307,-0.008514,-1.021332,0.037624,0.005165,-0.005914,0.999276,-0.005716,-0.037615,0.005914,0.999969,0.005165,0.037584,-0.005384,0.999279,0.037615,-0.005165,-0.999279,0.002088,0.000557,-0.027912,0.000057,-0.000601,-0.000001,23.253735,27.716518,-1.000000,-1.000000,-1.000000
482149023.878827,0.045334,-0.008469,-1.023895,0.037624,0.005165,-0.005914,0.999276,-0.005716,-0.037615,0.005914,0.999969,0.005165,0.037584,-0.005384,0.999279,0.037615,-0.005165,-0.999279,0.002088,0.000557,-0.027912,0.000057,-0.000601,-0.000001,23.253735,27.716518,-1.000000,-1.000000,-1.000000
482149023.889100,0.056580,-0.005432,-1.031021,0.037624,0.005165,-0.005914,0.999276,-0.005716,-0.037615,0.005914,0.999969,0.005165,0.037584,-0.005384,0.999279,0.037615,-0.005165,-0.999279,0.002088,0.000557,-0.027912,0.000057,-0.000601,-0.000001,23.253735,27.716518,-1.000000,-1.000000,-1.000000
482149023.899080,0.035095,-0.001724,-1.031403,0.037624,0.005165,-0.005914,0.999276,-0.005716,-0.037615,0.005914,0.999969,0.005165,0.037584,-0.005384,0.999279,0.037615,-0.005165,-0.999279,0.002088,0.000557,-0.027912,0.000057,-0.000601,-0.000001,23.253735,27.716518,-1.000000,-1.000000,-1.000000
482149023.909158,0.034103,-0.010498,-1.016769,0.037624,0.005165,-0.005914,0.999276,-0.005716,-0.037615,0.005914,0.999969,0.005165,0.037584,-0.005384,0.999279,0.037615,-0.005165,-0.999279,0.002088,0.000557,-0.027912,0.000057,-0.000601,-0.000001,23.253735,27.716518,-1.000000,-1.000000,-1.000000
482149023.919095,0.044739,-0.003571,-1.028854,0.037624,0.005165,-0.005914,0.999276,-0.005716,-0.037615,0.005914,0.999969,0.005165,0.037584,-0.005384,0.999279,0.037615,-0.005165,-0.999279,0.002088,0.000557,-0.027912,0.000057,-0.000601,-0.000001,23.253735,27.716518,-1.000000,-1.000000,-1.000000
482149023.929140,0.068665,-0.009308,-1.038025,0.037624,0.005165,-0.005914,0.999276,-0.005716,-0.037615,0.005914,0.999969,0.005165,0.037584,-0.005384,0.999279,0.037615,-0.005165,-0.999279,0.002088,0.000557,-0.027912,0.000057,-0.000601,-0.000001,23.253735,27.716518,-1.000000,-1.000000,-1.000000
482149023.939093,0.109360,-0.011475,-1.009338,0.037624,0.005165,-0.005914,0.999276,-0.005716,-0.037615,0.005914,0.999969,0.005165,0.037584,-0.005384,0.999279,0.037615,-0.005165,-0.999279,0.002088,0.000557,-0.027912,0.000057,-0.000601,-0.000001,23.253735,27.716518,-1.000000,-1.000000,-1.000000
482149023.949137,0.093796,-0.000961,-1.025940,0.037624,0.005165,-0.005914,0.999276,-0.005716,-0.037615,0.005914,0.999969,0.005165,0.037584,-0.005384,0.999279,0.037615,-0.005165,-0.999279,0.002088,0.000557,-0.027912,0.000057,-0.000601,-0.000001,23.253735,27.716518,-1.000000,-1.000000,-1.000000
482149023.958586,0.037598,-0.008575,-1.026306,0.037624,0.005165,-0.005914,0.999276,-0.005716,-0.037615,0.005914,0.999969,0.005165,0.037584,-0.005384,0.999279,0.037615,-0.005165,-0.999279,0.002088,0.000557,-0.027912,0.000057,-0.000601,-0.000001,23.253735,27.716518,-1.000000,-1.000000,-1.000000
482149023.968366,0.037598,-0.008575,-1.026306,0.037624,0.005165,-0.005914,0.999276,-0.005716,-0.037615,0.005914,0.999969,0.005165,0.037584,-0.005384,0.999279,0.037615,-0.005165,-0.999279,0.002088,0.000557,-0.027912,0.000057,-0.000601,-0.000001,23.253735,27.716518,-1.000000,-1.000000,-1.000000
482149023.979118,0.058060,-0.006302,-1.022202,0.037624,0.005165,-0.005914,0.999276,-0.005716,-0.037615,0.005914,0.999969,0.005165,0.037584,-0.005384,0.999279,0.037615,-0.005165,-0.999279,0.002088,0.000557,-0.027912,0.000057,-0.000601,-0.000001,23.253735,27.716518,-1.000000,-1.000000,-1.000000
482149023.989115,0.037735,0.003342,-1.023544,0.037624,0.005165,-0.005914,0.999276,-0.005716,-0.037615,0.005914,0.999969,0.005165,0.037584,-0.005384,0.999279,0.037615,-0.005165,-0.999279,0.002088,0.000557,-0.027912,0.000057,-0.000601,-0.000001,23.253735,27.716518,-1.000000,-1.000000,-1.000000
482149023.999078,0.049133,-0.005402,-1.019821,0.037624,0.005165,-0.005914,0.999276,-0.005716,-0.037615,0.005914,0.999969,0.005165,0.037584,-0.005384,0.999279,0.037615,-0.005165,-0.999279,0.002088,0.000557,-0.027912,0.000057,-0.000601,-0.000001,23.253735,27.716518,-1.000000,-1.000000,-1.000000
482149024.009157,0.043579,-0.002563,-1.025055,0.037624,0.005165,-0.005914,0.999276,-0.005716,-0.037615,0.005914,0.999969,0.005165,0.037584,-0.005384,0.999279,0.037615,-0.005165,-0.999279,0.002088,0.000557,-0.027912,0.000057,-0.000601,-0.000001,23.253735,27.716518,-1.000000,-1.000000,-1.000000
482149024.019129,0.051224,-0.001419,-1.020706,0.037624,0.005165,-0.005914,0.999276,-0.005716,-0.037615,0.005914,0.999969,0.005165,0.037584,-0.005384,0.999279,0.037615,-0.005165,-0.999279,0.002088,0.000557,-0.027912,0.000057,-0.000601,-0.000001,23.253735,27.716518,-1.000000,-1.000000,-1.000000
482149024.028762,0.041046,-0.004456,-1.015457,0.037624,0.005165,-0.005914,0.999276,-0.005716,-0.037615,0.005914,0.999969,0.005165,0.037584,-0.005384,0.999279,0.037615,-0.005165,-0.999279,0.002088,0.000557,-0.027912,0.000057,-0.000601,-0.000001,23.253735,27.716518,-1.000000,-1.000000,-1.000000
482149024.039114,0.024765,0.000244,-1.021362,0.037624,0.005165,-0.005914,0.999276,-0.005716,-0.037615,0.005914,0.999969,0.005165,0.037584,-0.005384,0.999279,0.037615,-0.005165,-0.999279,0.002088,0.000557,-0.027912,0.000057,-0.000601,-0.000001,23.253735,27.716518,-1.000000,-1.000000,-1.000000
482149024.049094,0.051224,-0.007385,-1.023560,0.037624,0.005165,-0.005914,0.999276,-0.005716,-0.037615,0.005914,0.999969,0.005165,0.037584,-0.005384,0.999279,0.037615,-0.005165,-0.999279,0.002088,0.000557,-0.027912,0.000057,-0.000601,-0.000001,23.253735,27.716518,-1.000000,-1.000000,-1.000000
482149024.059096,0.046738,-0.000366,-1.009354,0.037624,0.005165,-0.005914,0.999276,-0.005716,-0.037615,0.005914,0.999969,0.005165,0.037584,-0.005384,0.999279,0.037615,-0.005165,-0.999279,0.002088,0.000557,-0.027912,0.000057,-0.000601,-0.000001,23.253735,27.716518,-1.000000,-1.000000,-1.000000
482149024.069181,0.067627,-0.001160,-1.014877,0.037624,0.005165,-0.005914,0.999276,-0.005716,-0.037615,0.005914,0.999969,0.005165,0.037584,-0.005384,0.999279,0.037615,-0.005165,-0.999279,0.002088,0.000557,-0.027912,0.000057,-0.000601,-0.000001,23.253735,27.716518,-1.000000,-1.000000,-1.000000
482149024.079148,0.044830,0.000397,-1.028900,0.037624,0.005165,-0.005914,0.999276,-0.005716,-0.037615,0.005914,0.999969,0.005165,0.037584,-0.005384,0.999279,0.037615,-0.005165,-0.999279,0.002088,0.000557,-0.027912,0.000057,-0.000601,-0.000001,23.253735,27.716518,-1.000000,-1.000000,-1.000000
482149024.088851,0.044830,0.000397,-1.028900,0.037624,0.005165,-0.005914,0.999276,-0.005716,-0.037615,0.005914,0.999969,0.005165,0.037584,-0.005384,0.999279,0.037615,-0.005165,-0.999279,0.002088,0.000557,-0.027912,0.000057,-0.000601,-0.000001,23.253735,27.716518,-1.000000,-1.000000,-1.000000
482149024.099112,0.036240,-0.005524,-1.017670,0.037624,0.005165,-0.005914,0.999276,-0.005716,-0.037615,0.005914,0.999969,0.005165,0.037584,-0.005384,0.999279,0.037615,-0.005165,-0.999279,0.002088,0.000557,-0.027912,0.000057,-0.000601,-0.000001,23.253735,27.716518,-1.000000,-1.000000,-1.000000
482149024.108146,0.023331,-0.001678,-1.013657,0.037624,0.005165,-0.005914,0.999276,-0.005716,-0.037615,0.005914,0.999969,0.005165,0.037584,-0.005384,0.999279,0.037615,-0.005165,-0.999279,0.002088,0.000557,-0.027912,0.000057,-0.000601,-0.000001,23.253735,27.716518,-1.000000,-1.000000,-1.000000
482149024.119123,0.035812,-0.010422,-1.011810,0.037624,0.005165,-0.005914,0.999276,-0.005716,-0.037615,0.005914,0.999969,0.005165,0.037584,-0.005384,0.999279,0.037615,-0.005165,-0.999279,0.002088,0.000557,-0.027912,0.000057,-0.000601,-0.000001,23.253735,27.716518,-1.000000,-1.000000,-1.000000
482149024.129098,0.059601,-0.010391,-1.034683,0.037624,0.005165,-0.005914,0.999276,-0.005716,-0.037615,0.005914,0.999969,0.005165,0.037584,-0.005384,0.999279,0.037615,-0.005165,-0.999279,0.002088,0.000557,-0.027912,0.000057,-0.000601,-0.000001,23.253735,27.716518,-1.000000,-1.000000,-1.000000
482149024.138880,0.034027,-0.011459,-1.015793,0.037624,0.005165,-0.005914,0.999276,-0.005716,-0.037615,0.005914,0.999969,0.005165,0.037584,-0.005384,0.999279,0.037615,-0.005165,-0.999279,0.002088,0.000557,-0.027912,0.000057,-0.000601,-0.000001,23.253735,27.716518,-1.000000,-1.000000,-1.000000
482149024.149146,-0.011276,-0.003250,-1.029297,0.037624,0.005165,-0.005914,0.999276,-0.005716,-0.037615,0.005914,0.999969,0.005165,0.037584,-0.005384,0.999279,0.037615,-0.005165,-0.999279,0.002088,0.000557,-0.027912,0.000057,-0.000601,-0.000001,23.253735,27.716518,-1.000000,-1.000000,-1.000000
482149024.159080,-0.012451,-0.008209,-1.028351,0.037624,0.005165,-0.005914,0.999276,-0.005716,-0.037615,0.005914,0.999969,0.005165,0.037584,-0.005384,0.999279,0.037615,-0.005165,-0.999279,0.002088,0.000557,-0.027912,0.000057,-0.000601,-0.000001,23.253735,27.716518,-1.000000,-1.000000,-1.000000
482149024.169249,-0.017624,-0.001266,-1.019989,0.037624,0.005165,-0.005914,0.999276,-0.005716,-0.037615,0.005914,0.999969,0.005165,0.037584,-0.005384,0.999279,0.037615,-0.005165,-0.999279,0.002088,0.000557,-0.027912,0.000057,-0.000601,-0.000001,23.253735,27.716518,-1.000000,-1.000000,-1.000000
482149024.178509,0.038483,-0.008560,-1.024307,0.037624,0.005165,-0.005914,0.999276,-0.005716,-0.037615,0.005914,0.999969,0.005165,0.037584,-0.005384,0.999279,0.037615,-0.005165,-0.999279,0.002088,0.000557,-0.027912,0.000057,-0.000601,-0.000001,23.253735,27.716518,-1.000000,-1.000000,-1.000000
482149024.189218,0.028885,-0.007706,-1.028778,0.037624,0.005165,-0.005914,0.999276,-0.005716,-0.037615,0.005914,0.999969,0.005165,0.037584,-0.005384,0.999279,0.037615,-0.005165,-0.999279,0.002088,0.000557,-0.027912,0.000057,-0.000601,-0.000001,23.253735,27.716518,-1.000000,-1.000000,-1.000000
482149024.199126,0.023880,-0.008560,-1.008667,0.037624,0.005165,-0.005914,0.999276,-0.005716,-0.037615,0.005914,0.999969,0.005165,0.037584,-0.005384,0.999279,0.037615,-0.005165,-0.999279,0.002088,0.000557,-0.027912,0.000057,-0.000601,-0.000001,23.253735,27.716518,-1.000000,-1.000000,-1.000000
482149024.209121,0.023880,-0.008560,-1.008667,0.037624,0.005165,-0.005914,0.999276,-0.005716,-0.037615,0.005914,0.999969,0.005165,0.037584,-0.005384,0.999279,0.037615,-0.005165,-0.999279,0.002088,0.000557,-0.027912,0.000057,-0.000601,-0.000001,23.253735,27.716518,-1.000000,-1.000000,-1.000000
482149024.219113,0.020432,-0.009888,-1.037033,0.037624,0.005165,-0.005914,0.999276,-0.005716,-0.037615,0.005914,0.999969,0.005165,0.037584,-0.005384,0.999279,0.037615,-0.005165,-0.999279,0.002088,0.000557,-0.027912,0.000057,-0.000601,-0.000001,23.253735,27.716518,-1.000000,-1.000000,-1.000000
482149024.229099,-0.019501,-0.008453,-1.043335,0.037624,0.005165,-0.005914,0.999276,-0.005716,-0.037615,0.005914,0.999969,0.005165,0.037584,-0.005384,0.999279,0.037615,-0.005165,-0.999279,0.002088,0.000557,-0.027912,0.000057,-0.000601,-0.000001,23.253735,27.716518,-1.000000,-1.000000,-1.000000
482149024.238553,0.019348,-0.010468,-0.998215,0.037624,0.005165,-0.005914,0.999276,-0.005716,-0.037615,0.005914,0.999969,0.005165,0.037584,-0.005384,0.999279,0.037615,-0.005165,-0.999279,0.002088,0.000557,-0.027912,0.000057,-0.000601,-0.000001,23.253735,27.716518,-1.000000,-1.000000,-1.000000
482149024.249120,0.042816,-0.001801,-1.047455,0.037624,0.005165,-0.005914,0.999276,-0.005716,-0.037615,0.005914,0.999969,0.005165,0.037584,-0.005384,0.999279,0.037615,-0.005165,-0.999279,0.002088,0.000557,-0.027912,0.000057,-0.000601,-0.000001,23.253735,27.716518,-1.000000,-1.000000,-1.000000
482149024.259230,0.054153,-0.010345,-1.024323,0.037624,0.005165,-0.005914,0.999276,-0.005716,-0.037615,0.005914,0.999969,0.005165,0.037584,-0.005384,0.999279,0.037615,-0.005165,-0.999279,0.002088,0.000557,-0.027912,0.000057,-0.000601,-0.000001,23.253735,27.716518,-1.000000,-1.000000,-1.000000
482149024.269256,0.103470,-0.004593,-1.005890,0.037624,0.005165,-0.005914,0.999276,-0.005716,-0.037615,0.005914,0.999969,0.005165,0.037584,-0.005384,0.999279,0.037615,-0.005165,-0.999279,0.002088,0.000557,-0.027912,0.000057,-0.000601,-0.000001,23.253735,27.716518,-1.000000,-1.000000,-1.000000
482149024.279176,0.048401,-0.003662,-1.042236,0.037624,0.005165,-0.005914,0.999276,-0.005716,-0.037615,0.005914,0.999969,0.005165,0.037584,-0.005384,0.999279,0.037615,-0.005165,-0.999279,0.002088,0.000557,-0.027912,0.000057,-0.000601,-0.000001,23.253735,27.716518,-1.000000,-1.000000,-1.000000
482149024.289175,0.027374,-0.004654,-1.017258,0.037624,0.005165,-0.005914,0.999276,-0.005716,-0.037615,0.005914,0.999969,0.005165,0.037584,-0.005384,0.999279,0.037615,-0.005165,-0.999279,0.002088,0.000557,-0.027912,0.000057,-0.000601,-0.000001,23.253735,27.716518,-1.000000,-1.000000,-1.000000
482149024.299157,0.089035,-0.003052,-1.030106,0.037624,0.005165,-0.005914,0.999276,-0.005716,-0.037615,0.005914,0.999969,0.005165,0.037584,-0.005384,0.999279,0.037615,-0.005165,-0.999279,0.002088,0.000557,-0.027912,0.000057,-0.000601,-0.000001,23.253735,27.716518,-1.000000,-1.000000,-1.000000
482149024.309198,0.113037,-0.002823,-1.037399,0.037624,0.005165,-0.005914,0.999276,-0.005716,-0.037615,0.005914,0.999969,0.005165,0.037584,-0.005384,0.999279,0.037615,-0.005165,-0.999279,0.002088,0.000557,-0.027912,0.000057,-0.000601,-0.000001,23.253735,27.716518,-1.000000,-1.000000,-1.000000
482149024.319011,0.113037,-0.002823,-1.037399,0.037624,0.005165,-0.005914,0.999276,-0.005716,-0.037615,0.005914,0.999969,0.005165,0.037584,-0.005384,0.999279,0.037615,-0.005165,-0.999279,0.002088,0.000557,-0.027912,0.000057,-0.000601,-0.000001,23.253735,27.716518,-1.000000,-1.000000,-1.000000
482149024.329232,0.126495,-0.009369,-1.016098,0.037624,0.005165,-0.005914,0.999276,-0.005716,-0.037615,0.005914,0.999969,0.005165,0.037584,-0.005384,0.999279,0.037615,-0.005165,-0.999279,0.002088,0.000557,-0.027912,0.000057,-0.000601,-0.000001,23.253735,27.716518,-1.000000,-1.000000,-1.000000
482149024.339052,0.110168,-0.003479,-1.002579,0.037624,0.005165,-0.005914,0.999276,-0.005716,-0.037615,0.005914,0.999969,0.005165,0.037584,-0.005384,0.999279,0.037615,-0.005165,-0.999279,0.002088,0.000557,-0.027912,0.000057,-0.000601,-0.000001,23.253735,27.716518,-1.000000,-1.000000,-1.000000
482149024.349198,0.008667,-0.000076,-1.033005,0.037624,0.005165,-0.005914,0.999276,-0.005716,-0.037615,0.005914,0.999969,0.005165,0.037584,-0.005384,0.999279,0.037615,-0.005165,-0.999279,0.002088,0.000557,-0.027912,0.000057,-0.000601,-0.000001,23.253735,27.716518,-1.000000,-1.000000,-1.000000
482149024.359176,-0.052444,-0.003784,-1.031754,0.037624,0.005165,-0.005914,0.999276,-0.005716,-0.037615,0.005914,0.999969,0.005165,0.037584,-0.005384,0.999279,0.037615,-0.005165,-0.999279,0.002088,0.000557,-0.027912,0.000057,-0.000601,-0.000001,23.253735,27.716518,-1.000000,-1.000000,-1.000000
482149024.369166,-0.033768,-0.005341,-1.014114,0.037624,0.005165,-0.005914,0.999276,-0.005716,-0.037615,0.005914,0.999969,0.005165,0.037584,-0.005384,0.999279,0.037615,-0.005165,-0.999279,0.002088,0.000557,-0.027912,0.000057,-0.000601,-0.000001,23.253735,27.716518,-1.000000,-1.000000,-1.000000
482149024.379184,0.045044,0.002518,-1.013367,0.037624,0.005165,-0.005914,0.999276,-0.005716,-0.037615,0.005914,0.999969,0.005165,0.037584,-0.005384,0.999279,0.037615,-0.005165,-0.999279,0.002088,0.000557,-0.027912,0.000057,-0.000601,-0.000001,23.253735,27.716518,-1.000000,-1.000000,-1.000000
482149024.389272,0.035141,-0.003738,-1.033325,0.037624,0.005165,-0.005914,0.999276,-0.005716,-0.037615,0.005914,0.999969,0.005165,0.037584,-0.005384,0.999279,0.037615,-0.005165,-0.999279,0.002088,0.000557,-0.027912,0.000057,-0.000601,-0.000001,23.253735,27.716518,-1.000000,-1.000000,-1.000000
482149024.399179,-0.002731,-0.004089,-1.023926,0.037624,0.005165,-0.005914,0.999276,-0.005716,-0.037615,0.005914,0.999969,0.005165,0.037584,-0.005384,0.999279,0.037615,-0.005165,-0.999279,0.002088,0.000557,-0.027912,0.000057,-0.000601,-0.000001,23.253735,27.716518,-1.000000,-1.000000,-1.000000
482149024.409123,-0.022125,-0.006363,-1.029907,0.037624,0.005165,-0.005914,0.999276,-0.005716,-0.037615,0.005914,0.999969,0.005165,0.037584,-0.005384,0.999279,0.037615,-0.005165,-0.999279,0.002088,0.000557,-0.027912,0.000057,-0.000601,-0.000001,23.253735,27.716518,-1.000000,-1.000000,-1.000000
482149024.419169,-0.026154,0.000549,-1.025375,0.037624,0.005165,-0.005914,0.999276,-0.005716,-0.037615,0.005914,0.999969,0.005165,0.037584,-0.005384,0.999279,0.037615,-0.005165,-0.999279,0.002088,0.000557,-0.027912,0.000057,-0.000601,-0.000001,23.253735,27.716518,-1.000000,-1.000000,-1.000000
482149024.428642,-0.026154,0.000549,-1.025375,0.037624,0.005165,-0.005914,0.999276,-0.005716,-0.037615,0.005914,0.999969,0.005165,0.037584,-0.005384,0.999279,0.037615,-0.005165,-0.999279,0.002088,0.000557,-0.027912,0.000057,-0.000601,-0.000001,23.253735,27.716518,-1.000000,-1.000000,-1.000000
482149024.439290,0.076508,-0.007019,-1.018173,0.037624,0.005165,-0.005914,0.999276,-0.005716,-0.037615,0.005914,0.999969,0.005165,0.037584,-0.005384,0.999279,0.037615,-0.005165,-0.999279,0.002088,0.000557,-0.027912,0.000057,-0.000601,-0.000001,23.253735,27.716518,-1.000000,-1.000000,-1.000000
482149024.449328,0.114838,-0.002777,-1.034378,0.037624,0.005165,-0.005914,0.999276,-0.005716,-0.037615,0.005914,0.999969,0.005165,0.037584,-0.005384,0.999279,0.037615,-0.005165,-0.999279,0.002088,0.000557,-0.027912,0.000057,-0.000601,-0.000001,23.253735,27.716518,-1.000000,-1.000000,-1.000000
482149024.459105,0.159225,-0.006042,-1.020020,0.030825,0.008423,-0.000114,0.999525,0.000145,-0.030819,0.000114,0.999965,0.008423,0.030819,-0.008423,0.999489,0.030819,-0.008423,-0.999489,-0.056973,0.008972,-0.025886,0.001244,-0.000637,0.003397,23.253735,27.716518,-1.000000,-1.000000,-1.000000
482149024.469174,0.098282,-0.004807,-1.019806,0.030824,0.008430,-0.000094,0.999525,0.000165,-0.030818,0.000094,0.999964,0.008430,0.030819,-0.008429,0.999489,0.030818,-0.008430,-0.999489,0.045689,0.001411,-0.018684,-0.001172,0.000566,0.003255,23.253735,27.716518,-1.000000,-1.000000,-1.000000
482149024.478554,0.034653,-0.006638,-1.025543,0.030802,0.008437,-0.000047,0.999526,0.000213,-0.030796,0.000047,0.999964,0.008437,0.030797,-0.008434,0.999490,0.030796,-0.008437,-0.999490,0.084042,0.005659,-0.034888,0.001177,-0.000627,0.004568,23.253735,27.716518,-1.000000,-1.000000,-1.000000
482149024.488303,0.093719,-0.001740,-1.006516,0.030790,0.008416,-0.000022,0.999526,0.000237,-0.030784,0.000022,0.999965,0.008416,0.030785,-0.008412,0.999491,0.030784,-0.008416,-0.999491,0.128441,0.002373,-0.020529,-0.002312,-0.000632,0.002037,23.253735,27.716518,-1.000000,-1.000000,-1.000000
482149024.499169,0.100952,0.005219,-1.010071,0.030801,0.008439,0.000030,0.999526,0.000290,-0.030795,-0.000030,0.999964,0.008439,0.030796,-0.008434,0.999490,0.030795,-0.008439,-0.999490,0.067487,0.003632,-0.020316,0.001110,0.000577,0.005723,23.253735,27.716518,-1.000000,-1.000000,-1.000000
482149024.509173,0.132217,-0.007492,-1.030380,0.030822,0.008329,0.000121,0.999525,0.000377,-0.030816,-0.000121,0.999965,0.008329,0.030818,-0.008322,0.999490,0.030816,-0.008329,-0.999490,0.003837,0.001692,-0.026053,-0.002113,0.004110,-0.001540,23.253735,27.716518,-1.000000,-1.000000,-1.000000
482149024.519107,0.109161,-0.004700,-1.021103,0.030822,0.008329,0.000121,0.999525,0.000377,-0.030816,-0.000121,0.999965,0.008329,0.030818,-0.008322,0.999490,0.030816,-0.008329,-0.999490,0.003837,0.001692,-0.026053,-0.002113,0.004110,-0.001540,23.253735,27.716518,-1.000000,-1.000000,-1.000000
482149024.529167,0.085068,-0.004883,-1.011856,0.030821,0.008353,0.000152,0.999525,0.000409,-0.030815,-0.000152,0.999965,0.008353,0.030818,-0.008344,0.999490,0.030815,-0.008353,-0.999490,0.062904,0.006613,-0.007025,0.007351,-0.003061,0.002572,23.253735,27.716518,-1.000000,-1.000000,-1.000000
482149024.538854,0.085068,-0.004883,-1.011856,0.030853,0.008432,0.000241,0.999524,0.000501,-0.030847,-0.000241,0.999964,0.008432,0.030850,-0.008421,0.999489,0.030847,-0.008432,-0.999489,0.101371,0.000940,-0.030892,0.001176,0.002954,0.004520,23.253735,27.716518,-1.000000,-1.000000,-1.000000
482149024.549096,-0.002350,-0.007156,-1.032593,0.030836,0.008445,0.000272,0.999525,0.000532,-0.030830,-0.000272,0.999964,0.008445,0.030833,-0.008432,0.999489,0.030830,-0.008445,-0.999489,0.078332,0.003745,-0.021614,0.003662,-0.006616,0.003602,23.253735,27.716518,-1.000000,-1.000000,-1.000000
482149024.559162,-0.037704,-0.003418,-1.013397,0.030836,0.008445,0.000272,0.999525,0.000532,-0.030830,-0.000272,0.999964,0.008445,0.030833,-0.008432,0.999489,0.030830,-0.008445,-0.999489,0.078332,0.003745,-0.021614,0.003662,-0.006616,0.003602,23.253735,27.716518,-1.000000,-1.000000,-1.000000
482149024.569270,-0.036621,-0.009598,-1.036560,0.030824,0.008385,0.000370,0.999525,0.000628,-0.030818,-0.000370,0.999965,0.008385,0.030822,-0.008370,0.999490,0.030818,-0.008385,-0.999490,0.054250,0.003502,-0.012366,-0.004660,-0.003020,0.000772,23.253735,27.716518,-1.000000,-1.000000,-1.000000
482149024.579189,0.014664,-0.005020,-1.037445,0.030785,0.008420,0.000418,0.999526,0.000676,-0.030779,-0.000418,0.999964,0.008419,0.030783,-0.008403,0.999491,0.030779,-0.008419,-0.999491,-0.033129,0.001263,-0.033102,0.006009,-0.001841,0.004835,23.253735,27.716518,-1.000000,-1.000000,-1.000000
482149024.589190,0.056808,-0.011215,-1.019287,0.030811,0.008348,0.000541,0.999525,0.000798,-0.030805,-0.000541,0.999965,0.008348,0.030811,-0.008327,0.999491,0.030805,-0.008348,-0.999491,-0.067426,-0.001250,-0.037070,-0.004929,0.001796,0.005393,23.253735,27.716518,-1.000000,-1.000000,-1.000000
482149024.599212,0.005981,-0.009933,-1.024292,0.030811,0.008348,0.000541,0.999525,0.000798,-0.030805,-0.000541,0.999965,0.008348,0.030811,-0.008327,0.999491,0.030805,-0.008348,-0.999491,-0.067426,-0.001250,-0.037070,-0.004929,0.001796,0.005393,23.253735,27.716518,-1.000000,-1.000000,-1.000000
482149024.609174,-0.075821,-0.001938,-1.016678,0.030800,0.008367,0.000545,0.999525,0.000803,-0.030794,-0.000545,0.999965,0.008367,0.030799,-0.008346,0.999491,0.030794,-0.008367,-0.999491,-0.016130,0.003347,-0.037954,-0.000971,0.000535,-0.000259,23.253735,27.716518,-1.000000,-1.000000,-1.000000
482149024.619171,-0.021774,-0.006256,-1.018250,0.030765,0.008381,0.000596,0.999526,0.000854,-0.030760,-0.000596,0.999965,0.008381,0.030766,-0.008358,0.999492,0.030760,-0.008381,-0.999492,-0.024778,-0.001553,-0.024800,-0.004594,0.000550,-0.000447,23.253735,27.716518,-1.000000,-1.000000,-1.000000
482149024.629592,0.057343,0.000595,-1.024277,0.030765,0.008381,0.000596,0.999526,0.000854,-0.030760,-0.000596,0.999965,0.008381,0.030766,-0.008358,0.999492,0.030760,-0.008381,-0.999492,-0.024778,-0.001553,-0.024800,-0.004594,0.000550,-0.000447,23.253735,27.716518,-1.000000,-1.000000,-1.000000
482149024.639164,0.059647,-0.004425,-1.032806,0.030765,0.008362,0.000556,0.999527,0.000813,-0.030759,-0.000556,0.999965,0.008362,0.030765,-0.008340,0.999492,0.030759,-0.008362,-0.999492,-0.106580,0.006424,-0.017186,-0.003185,-0.000680,-0.003882,23.253735,27.716518,-1.000000,-1.000000,-1.000000
482149024.649177,0.081360,-0.008942,-1.017838,0.030742,0.008347,0.000623,0.999527,0.000879,-0.030736,-0.000623,0.999965,0.008347,0.030742,-0.008324,0.999493,0.030736,-0.008347,-0.999493,-0.052510,0.002091,-0.018757,-0.002647,-0.001774,0.007909,23.253735,27.716518,-1.000000,-1.000000,-1.000000
482149024.659170,0.092865,0.001205,-1.007584,0.030714,0.008331,0.000680,0.999528,0.000936,-0.030708,-0.000680,0.999965,0.008331,0.030715,-0.008306,0.999494,0.030708,-0.008331,-0.999494,0.026634,0.008926,-0.024783,-0.002580,-0.002978,0.006754,23.253735,27.716518,-1.000000,-1.000000,-1.000000
482149024.668752,0.092865,0.001205,-1.007584,0.030714,0.008331,0.000680,0.999528,0.000936,-0.030708,-0.000680,0.999965,0.008331,0.030715,-0.008306,0.999494,0.030708,-0.008331,-0.999494,0.026634,0.008926,-0.024783,-0.002580,-0.002978,0.006754,23.253735,27.716518,-1.000000,-1.000000,-1.000000
482149024.679209,0.009384,-0.002014,-1.029037,0.030707,0.008329,0.000731,0.999528,0.000986,-0.030701,-0.000731,0.999965,0.008328,0.030709,-0.008302,0.999494,0.030701,-0.008328,-0.999494,0.050658,-0.000613,-0.018344,0.006210,-0.001873,0.001321,23.253735,27.716518,-1.000000,-1.000000,-1.000000
482149024.689214,0.049026,-0.009354,-1.019775,0.030679,0.008363,0.000768,0.999529,0.001024,-0.030673,-0.000768,0.999965,0.008363,0.030681,-0.008335,0.999494,0.030673,-0.008363,-0.999494,0.062192,0.009568,-0.008089,0.001246,-0.006606,0.003476,23.253735,27.716518,-1.000000,-1.000000,-1.000000
482149024.699192,0.092224,-0.008026,-1.036636,0.030640,0.008382,0.000835,0.999530,0.001091,-0.030634,-0.000835,0.999965,0.008382,0.030642,-0.008353,0.999496,0.030634,-0.008382,-0.999496,-0.021250,0.006368,-0.029542,0.006007,0.001740,0.004788,23.253735,27.716518,-1.000000,-1.000000,-1.000000
482149024.709312,0.079681,-0.012192,-1.043167,0.030640,0.008382,0.000835,0.999530,0.001091,-0.030634,-0.000835,0.999965,0.008382,0.030642,-0.008353,0.999496,0.030634,-0.008382,-0.999496,-0.021250,0.006368,-0.029542,0.006007,0.001740,0.004788,23.253735,27.716518,-1.000000,-1.000000,-1.000000
482149024.719356,0.137894,-0.009155,-1.008636,0.030644,0.008449,0.000905,0.999530,0.001163,-0.030638,-0.000905,0.999964,0.008449,0.030647,-0.008417,0.999495,0.030638,-0.008449,-0.999495,0.018388,-0.000905,-0.020281,0.008290,-0.000637,0.007287,23.253735,27.716518,-1.000000,-1.000000,-1.000000
482149024.728894,0.115219,-0.004639,-1.023636,0.030610,0.008479,0.000994,0.999531,0.001253,-0.030604,-0.000994,0.999964,0.008479,0.030614,-0.008444,0.999496,0.030604,-0.008479,-0.999496,0.049077,-0.003713,-0.043671,0.002653,-0.001868,-0.000039,23.253735,27.716518,-1.000000,-1.000000,-1.000000
482149024.738386,0.015228,-0.003922,-1.028671,0.030610,0.008479,0.000994,0.999531,0.001253,-0.030604,-0.000994,0.999964,0.008479,0.030614,-0.008444,0.999496,0.030604,-0.008479,-0.999496,0.049077,-0.003713,-0.043671,0.002653,-0.001868,-0.000039,23.253735,27.716518,-1.000000,-1.000000,-1.000000
482149024.749184,-0.036469,-0.013580,-1.041367,0.030598,0.008492,0.000998,0.999531,0.001257,-0.030593,-0.000998,0.999963,0.008492,0.030602,-0.008457,0.999496,0.030593,-0.008492,-0.999496,0.107301,-0.000664,-0.009141,0.000371,0.000508,-0.002538,23.253735,27.716518,-1.000000,-1.000000,-1.000000
482149024.759172,-0.049332,-0.004776,-1.035446,0.030520,0.008546,0.000985,0.999534,0.001246,-0.030514,-0.000985,0.999963,0.008546,0.030524,-0.008512,0.999498,0.030514,-0.008546,-0.999498,0.084705,0.003908,-0.024138,-0.000031,-0.001816,0.004521,23.253735,27.716518,-1.000000,-1.000000,-1.000000
482149024.769144,0.051666,-0.008286,-1.013824,0.030536,0.008569,0.001038,0.999533,0.001299,-0.030530,-0.001038,0.999963,0.008569,0.030540,-0.008534,0.999497,0.030530,-0.008569,-0.999497,-0.015302,0.004648,-0.029174,0.004666,0.000572,0.007083,23.253735,27.716518,-1.000000,-1.000000,-1.000000
482149024.779166,0.051666,-0.008286,-1.013824,0.030536,0.008569,0.001038,0.999533,0.001299,-0.030530,-0.001038,0.999963,0.008569,0.030540,-0.008534,0.999497,0.030530,-0.008569,-0.999497,-0.015302,0.004648,-0.029174,0.004666,0.000572,0.007083,23.253735,27.716518,-1.000000,-1.000000,-1.000000
482149024.789223,0.003265,0.000931,-1.023621,0.030507,0.008565,0.001153,0.999534,0.001414,-0.030502,-0.001153,0.999963,0.008565,0.030513,-0.008526,0.999498,0.030502,-0.008565,-0.999498,-0.079833,0.003789,-0.035948,-0.001506,-0.004155,0.009175,23.253735,27.716518,-1.000000,-1.000000,-1.000000
482149024.799175,0.001343,-0.009842,-1.010971,0.030490,0.008532,0.001210,0.999534,0.001469,-0.030485,-0.001210,0.999963,0.008532,0.030496,-0.008491,0.999499,0.030485,-0.008532,-0.999499,-0.079816,0.003756,-0.035947,-0.001372,-0.002983,0.006817,23.253735,27.716518,-1.000000,-1.000000,-1.000000
482149024.809357,-0.039963,-0.001587,-1.025208,0.030396,0.008540,0.001283,0.999537,0.001542,-0.030390,-0.001283,0.999963,0.008540,0.030402,-0.008497,0.999502,0.030390,-0.008540,-0.999502,-0.027125,0.009471,-0.024119,0.002453,-0.005417,0.003523,23.253735,27.716518,-1.000000,-1.000000,-1.000000
482149024.819132,-0.069443,-0.006134,-1.046356,0.030396,0.008540,0.001283,0.999537,0.001542,-0.030390,-0.001283,0.999963,0.008540,0.030402,-0.008497,0.999502,0.030390,-0.008540,-0.999502,-0.027125,0.009471,-0.024119,0.002453,-0.005417,0.003523,23.253735,27.716518,-1.000000,-1.000000,-1.000000
482149024.829178,0.023697,-0.005737,-1.022308,0.030362,0.008565,0.001250,0.999538,0.001509,-0.030357,-0.001250,0.999963,0.008565,0.030368,-0.008523,0.999502,0.030357,-0.008565,-0.999502,-0.029014,-0.001277,-0.011469,0.001781,-0.004303,-0.005925,23.253735,27.716518,-1.000000,-1.000000,-1.000000
482149024.839427,0.066620,-0.000183,-1.013977,0.030350,0.008561,0.001360,0.999538,0.001619,-0.030345,-0.001360,0.999962,0.008561,0.030357,-0.008516,0.999503,0.030345,-0.008561,-0.999503,-0.099787,0.002427,-0.046853,-0.000031,-0.003009,0.004537,23.253735,27.716518,-1.000000,-1.000000,-1.000000
482149024.849181,0.088608,-0.009918,-1.025162,0.030350,0.008561,0.001360,0.999538,0.001619,-0.030345,-0.001360,0.999962,0.008561,0.030357,-0.008516,0.999503,0.030345,-0.008561,-0.999503,-0.099787,0.002427,-0.046853,-0.000031,-0.003009,0.004537,23.253735,27.716518,-1.000000,-1.000000,-1.000000
482149024.859166,0.144165,-0.002380,-1.030701,0.030350,0.008529,0.001384,0.999538,0.001642,-0.030344,-0.001384,0.999963,0.008529,0.030357,-0.008483,0.999503,0.030344,-0.008529,-0.999503,-0.006647,0.002791,-0.022805,-0.005936,-0.001811,0.001864,23.253735,27.716518,-1.000000,-1.000000,-1.000000
482149024.869169,0.018097,-0.000702,-1.007172,0.030343,0.008530,0.001494,0.999538,0.001752,-0.030337,-0.001494,0.999963,0.008530,0.030351,-0.008481,0.999503,0.030337,-0.008530,-0.999503,0.036282,0.008347,-0.014474,0.005874,-0.001820,0.007178,23.253735,27.716518,-1.000000,-1.000000,-1.000000
482149024.879164,0.048782,-0.000381,-1.011169,0.030326,0.008498,0.001540,0.999539,0.001797,-0.030321,-0.001540,0.999963,0.008497,0.030335,-0.008447,0.999504,0.030321,-0.008497,-0.999504,0.058287,-0.001421,-0.025658,-0.007412,-0.001764,0.006487,23.253735,27.716518,-1.000000,-1.000000,-1.000000
482149024.889261,0.048782,-0.000381,-1.011169,0.030326,0.008498,0.001540,0.999539,0.001797,-0.030321,-0.001540,0.999963,0.008497,0.030335,-0.008447,0.999504,0.030321,-0.008497,-0.999504,0.058287,-0.001421,-0.025658,-0.007412,-0.001764,0.006487,23.253735,27.716518,-1.000000,-1.000000,-1.000000
482149024.899208,0.069977,-0.008179,-1.025345,0.030309,0.008435,0.001524,0.999539,0.001779,-0.030303,-0.001524,0.999963,0.008435,0.030317,-0.008385,0.999505,0.030303,-0.008435,-0.999505,-0.012206,0.007733,-0.007666,0.001578,-0.000691,-0.002460,23.253735,27.716518,-1.000000,-1.000000,-1.000000
482149024.909215,0.087402,-0.012894,-1.022293,0.030292,0.008398,0.001549,0.999540,0.001802,-0.030286,-0.001549,0.999964,0.008398,0.030300,-0.008347,0.999506,0.030286,-0.008398,-0.999506,0.018496,0.008016,-0.011663,-0.003455,0.004136,0.000739,23.253735,27.716518,-1.000000,-1.000000,-1.000000
482149024.919120,0.096756,0.000061,-1.025787,0.030292,0.008398,0.001549,0.999540,0.001802,-0.030286,-0.001549,0.999964,0.008398,0.030300,-0.008347,0.999506,0.030286,-0.008398,-0.999506,0.018496,0.008016,-0.011663,-0.003455,0.004136,0.000739,23.253735,27.716518,-1.000000,-1.000000,-1.000000
482149024.929225,0.081024,-0.009888,-1.012024,0.030313,0.008456,0.001611,0.999539,0.001866,-0.030307,-0.001611,0.999963,0.008456,0.030322,-0.008403,0.999505,0.030307,-0.008456,-0.999505,0.039670,0.000277,-0.025840,0.012114,-0.000684,0.003962,23.253735,27.716518,-1.000000,-1.000000,-1.000000
482149024.939177,-0.003067,-0.003235,-1.035599,0.030307,0.008436,0.001614,0.999539,0.001869,-0.030301,-0.001614,0.999963,0.008436,0.030316,-0.008383,0.999505,0.030301,-0.008436,-0.999505,0.057101,-0.004458,-0.022788,-0.004528,0.000539,-0.001618,23.253735,27.716518,-1.000000,-1.000000,-1.000000
482149024.949171,0.017578,-0.012711,-1.021622,0.030316,0.008444,0.001653,0.999539,0.001909,-0.030311,-0.001653,0.999963,0.008444,0.030326,-0.008390,0.999505,0.030311,-0.008444,-0.999505,0.050714,-0.001443,-0.012519,-0.002313,-0.000633,0.002037,23.253735,27.716518,-1.000000,-1.000000,-1.000000
482149024.959161,-0.077499,0.001770,-1.039154,0.030316,0.008444,0.001653,0.999539,0.001909,-0.030311,-0.001653,0.999963,0.008444,0.030326,-0.008390,0.999505,0.030311,-0.008444,-0.999505,0.050714,-0.001443,-0.012519,-0.002313,-0.000633,0.002037,23.253735,27.716518,-1.000000,-1.000000,-1.000000
482149024.969208,0.053101,-0.011307,-1.023407,0.030316,0.008424,0.001651,0.999539,0.001906,-0.030310,-0.001651,0.999963,0.008424,0.030325,-0.008370,0.999505,0.030310,-0.008424,-0.999505,0.050714,-0.001463,-0.012519,-0.001039,-0.000649,0.000928,23.253735,27.716518,-1.000000,-1.000000,-1.000000
482149024.979390,0.071075,-0.003220,-1.025345,0.030282,0.008377,0.001701,0.999540,0.001954,-0.030276,-0.001701,0.999963,0.008377,0.030292,-0.008322,0.999506,0.030276,-0.008377,-0.999506,-0.012698,-0.004334,-0.022115,-0.008017,-0.001854,-0.004118,23.253735,27.716518,-1.000000,-1.000000,-1.000000
482149024.989020,0.071075,-0.003220,-1.025345,0.030298,0.008396,0.001699,0.999539,0.001953,-0.030292,-0.001699,0.999963,0.008396,0.030307,-0.008340,0.999506,0.030292,-0.008396,-0.999506,-0.107791,0.010166,-0.039648,0.006275,0.001697,0.000102,23.253735,27.716518,-1.000000,-1.000000,-1.000000
482149024.999145,-0.017456,-0.003265,-1.023834,0.030298,0.008396,0.001699,0.999539,0.001953,-0.030292,-0.001699,0.999963,0.008396,0.030307,-0.008340,0.999506,0.030292,-0.008396,-0.999506,-0.107791,0.010166,-0.039648,0.006275,0.001697,0.000102,23.253735,27.716518,-1.000000,-1.000000,-1.000000
482149025.009177,-0.009964,-0.006104,-1.018478,0.030324,0.008303,0.001779,0.999538,0.002030,-0.030319,-0.001779,0.999964,0.008303,0.030335,-0.008245,0.999506,0.030319,-0.008303,-0.999506,0.040757,0.005084,-0.025839,-0.004797,0.001775,0.003050,23.253735,27.716518,-1.000000,-1.000000,-1.000000
482149025.019168,-0.083893,0.003784,-1.028870,0.030351,0.008308,0.001896,0.999537,0.002147,-0.030346,-0.001896,0.999964,0.008308,0.030362,-0.008246,0.999505,0.030346,-0.008308,-0.999505,0.040730,0.005088,-0.025840,0.000572,0.001855,0.015077,23.253735,27.716518,-1.000000,-1.000000,-1.000000
482149025.029186,0.012390,-0.009750,-1.015167,0.030351,0.008308,0.001896,0.999537,0.002147,-0.030346,-0.001896,0.999964,0.008308,0.030362,-0.008246,0.999505,0.030346,-0.008308,-0.999505,0.040730,0.005088,-0.025840,0.000572,0.001855,0.015077,23.253735,27.716518,-1.000000,-1.000000,-1.000000
482149025.039174,0.139816,-0.008133,-1.007553,0.030345,0.008283,0.001930,0.999537,0.002180,-0.030339,-0.001930,0.999964,0.008283,0.030356,-0.008221,0.999505,0.030339,-0.008283,-0.999505,-0.040303,0.002180,-0.018973,-0.003521,0.000566,0.001958,23.253735,27.716518,-1.000000,-1.000000,-1.000000
482149025.049166,0.190903,-0.001938,-1.040512,0.030339,0.008278,0.001982,0.999537,0.002232,-0.030333,-0.001982,0.999964,0.008278,0.030350,-0.008214,0.999506,0.030333,-0.008278,-0.999506,-0.114226,0.012062,-0.029364,0.000975,-0.000596,0.008081,23.253735,27.716518,-1.000000,-1.000000,-1.000000
482149025.059164,0.110306,-0.002518,-1.004547,0.030354,0.008292,0.002027,0.999537,0.002277,-0.030348,-0.002026,0.999964,0.008292,0.030366,-0.008227,0.999505,0.030348,-0.008292,-0.999505,0.109468,0.000159,-0.008048,0.002519,-0.003041,0.002320,23.253735,27.716518,-1.000000,-1.000000,-1.000000
482149025.069206,0.025635,-0.004700,-1.021240,0.030354,0.008292,0.002027,0.999537,0.002277,-0.030348,-0.002026,0.999964,0.008292,0.030366,-0.008227,0.999505,0.030348,-0.008292,-0.999505,0.109468,0.000159,-0.008048,0.002519,-0.003041,0.002320,23.253735,27.716518,-1.000000,-1.000000,-1.000000
482149025.079164,0.114166,-0.006622,-1.023682,0.030342,0.008294,0.002030,0.999537,0.002281,-0.030337,-0.002030,0.999964,0.008294,0.030355,-0.008229,0.999505,0.030337,-0.008294,-0.999505,0.160566,0.006356,-0.041007,-0.000838,0.001707,-0.002617,23.253735,27.716518,-1.000000,-1.000000,-1.000000
482149025.089223,0.113785,0.000397,-1.013107,0.030242,0.008299,0.002017,0.999540,0.002267,-0.030237,-0.002017,0.999964,0.008299,0.030255,-0.008234,0.999508,0.030237,-0.008299,-0.999508,0.080069,0.005781,-0.005039,0.001511,-0.001874,-0.001272,23.253735,27.716518,-1.000000,-1.000000,-1.000000
482149025.098880,0.113785,0.000397,-1.013107,0.030225,0.008306,0.002037,0.999541,0.002287,-0.030220,-0.002037,0.999963,0.008306,0.030238,-0.008241,0.999509,0.030220,-0.008306,-0.999509,-0.004585,0.003606,-0.021731,-0.001173,-0.000628,0.003271,23.253735,27.716518,-1.000000,-1.000000,-1.000000
482149025.109262,0.117905,-0.010498,-1.021469,0.030225,0.008306,0.002037,0.999541,0.002287,-0.030220,-0.002037,0.999963,0.008306,0.030238,-0.008241,0.999509,0.030220,-0.008306,-0.999509,-0.004585,0.003606,-0.021731,-0.001173,-0.000628,0.003271,23.253735,27.716518,-1.000000,-1.000000,-1.000000
482149025.119145,0.077606,-0.006256,-1.038498,0.030241,0.008274,0.002146,0.999540,0.002395,-0.030235,-0.002146,0.999963,0.008274,0.030254,-0.008205,0.999509,0.030235,-0.008274,-0.999509,0.083550,0.008671,-0.013599,0.001175,0.000566,0.004552,23.253735,27.716518,-1.000000,-1.000000,-1.000000
482149025.129166,0.066284,-0.005096,-1.010056,0.030235,0.008254,0.002149,0.999540,0.002398,-0.030229,-0.002149,0.999964,0.008254,0.030248,-0.008185,0.999509,0.030229,-0.008254,-0.999509,0.083556,0.008650,-0.013598,-0.005803,-0.001833,-0.000479,23.253735,27.716518,-1.000000,-1.000000,-1.000000
482149025.139428,0.014023,-0.004684,-1.006378,0.030235,0.008254,0.002149,0.999540,0.002398,-0.030229,-0.002149,0.999964,0.008254,0.030248,-0.008185,0.999509,0.030229,-0.008254,-0.999509,0.083556,0.008650,-0.013598,-0.005803,-0.001833,-0.000479,23.253735,27.716518,-1.000000,-1.000000,-1.000000
482149025.149115,-0.017273,0.002457,-1.043335,0.030223,0.008280,0.002135,0.999541,0.002385,-0.030217,-0.002135,0.999963,0.008280,0.030236,-0.008212,0.999509,0.030217,-0.008280,-0.999509,0.047389,0.002024,-0.038989,0.008891,-0.000732,-0.003254,23.253735,27.716518,-1.000000,-1.000000,-1.000000
482149025.159220,-0.023926,-0.013184,-1.018280,0.030222,0.008265,0.002166,0.999540,0.002414,-0.030216,-0.002166,0.999964,0.008265,0.030235,-0.008196,0.999509,0.030216,-0.008265,-0.999509,0.036068,0.003168,-0.010546,-0.007212,0.000591,0.002941,23.253735,27.716518,-1.000000,-1.000000,-1.000000
482149025.169169,-0.091278,-0.000397,-1.039948,0.030243,0.008285,0.002205,0.999540,0.002455,-0.030237,-0.002205,0.999963,0.008285,0.030256,-0.008214,0.999508,0.030237,-0.008285,-0.999508,-0.047510,0.010741,-0.043827,0.001374,0.006502,0.000959,23.253735,27.716518,-1.000000,-1.000000,-1.000000
482149025.179176,-0.016663,0.002533,-1.036499,0.030243,0.008285,0.002205,0.999540,0.002455,-0.030237,-0.002205,0.999963,0.008285,0.030256,-0.008214,0.999508,0.030237,-0.008285,-0.999508,-0.047510,0.010741,-0.043827,0.001374,0.006502,0.000959,23.253735,27.716518,-1.000000,-1.000000,-1.000000
482149025.189175,-0.023026,-0.013138,-1.016281,0.030264,0.008315,0.002204,0.999539,0.002454,-0.030258,-0.002204,0.999963,0.008314,0.030278,-0.008244,0.999508,0.030258,-0.008314,-0.999508,-0.054184,-0.004869,-0.018772,0.002584,0.000529,0.001101,23.253735,27.716518,-1.000000,-1.000000,-1.000000
482149025.199304,-0.052780,-0.006714,-1.026871,0.030246,0.008313,0.002195,0.999540,0.002445,-0.030241,-0.002195,0.999963,0.008313,0.030260,-0.008243,0.999508,0.030241,-0.008313,-0.999508,-0.121519,0.007917,-0.040439,-0.004461,-0.000665,-0.002774,23.253735,27.716518,-1.000000,-1.000000,-1.000000
482149025.208829,-0.052780,-0.006714,-1.026871,0.030240,0.008293,0.002220,0.999540,0.002469,-0.030235,-0.002220,0.999963,0.008292,0.030254,-0.008222,0.999508,0.030235,-0.008292,-0.999508,-0.046897,0.010825,-0.036991,-0.004864,-0.000602,0.004254,23.253735,27.716518,-1.000000,-1.000000,-1.000000
482149025.219417,-0.078384,-0.002258,-1.043060,0.030240,0.008293,0.002220,0.999540,0.002469,-0.030235,-0.002220,0.999963,0.008292,0.030254,-0.008222,0.999508,0.030235,-0.008292,-0.999508,-0.046897,0.010825,-0.036991,-0.004864,-0.000602,0.004254,23.253735,27.716518,-1.000000,-1.000000,-1.000000
482149025.228915,0.019241,-0.010651,-1.014740,0.030239,0.008352,0.002233,0.999540,0.002485,-0.030233,-0.002233,0.999963,0.008352,0.030253,-0.008280,0.999508,0.030233,-0.008352,-0.999508,-0.083013,0.001638,-0.027363,0.007615,0.004058,-0.002210,23.253735,27.716518,-1.000000,-1.000000,-1.000000
482149025.239143,0.043198,-0.003662,-1.036728,0.030238,0.008354,0.002248,0.999540,0.002499,-0.030233,-0.002248,0.999963,0.008353,0.030252,-0.008282,0.999508,0.030233,-0.008353,-0.999508,-0.108617,0.006095,-0.043552,0.000035,-0.000633,0.003333,23.253735,27.716518,-1.000000,-1.000000,-1.000000
482149025.249143,0.185181,-0.014557,-1.012512,0.030238,0.008354,0.002248,0.999540,0.002499,-0.030233,-0.002248,0.999963,0.008353,0.030252,-0.008282,0.999508,0.030233,-0.008353,-0.999508,-0.108617,0.006095,-0.043552,0.000035,-0.000633,0.003333,23.253735,27.716518,-1.000000,-1.000000,-1.000000
482149025.259173,0.159012,-0.000229,-1.031754,0.030204,0.008320,0.002222,0.999541,0.002472,-0.030199,-0.002222,0.999963,0.008319,0.030218,-0.008248,0.999509,0.030199,-0.008319,-0.999509,-0.010957,-0.002331,-0.015231,-0.003187,-0.000681,-0.003882,23.253735,27.716518,-1.000000,-1.000000,-1.000000
482149025.269236,0.038376,-0.014496,-1.025223,0.030214,0.008377,0.002211,0.999541,0.002463,-0.030209,-0.002211,0.999962,0.008377,0.030228,-0.008307,0.999509,0.030209,-0.008377,-0.999509,0.012989,0.004715,-0.037219,0.011038,0.001687,0.001525,23.253735,27.716518,-1.000000,-1.000000,-1.000000
482149025.279189,0.030411,-0.012772,-1.041245,0.030126,0.008369,0.002267,0.999543,0.002518,-0.030120,-0.002267,0.999962,0.008369,0.030140,-0.008297,0.999511,0.030120,-0.008369,-0.999511,0.128892,0.008140,-0.032242,-0.001105,-0.004219,0.002147,23.253735,27.716518,-1.000000,-1.000000,-1.000000
482149025.289220,0.079941,-0.012039,-1.029541,0.030126,0.008369,0.002267,0.999543,0.002518,-0.030120,-0.002267,0.999962,0.008369,0.030140,-0.008297,0.999511,0.030120,-0.008369,-0.999511,0.128892,0.008140,-0.032242,-0.001105,-0.004219,0.002147,23.253735,27.716518,-1.000000,-1.000000,-1.000000
482149025.299203,0.097885,-0.010880,-1.033356,0.030119,0.008397,0.002336,0.999543,0.002588,-0.030114,-0.002336,0.999962,0.008397,0.030134,-0.008323,0.999511,0.030114,-0.008397,-0.999511,0.008262,-0.006099,-0.025712,0.005806,-0.000616,0.008332,23.253735,27.716518,-1.000000,-1.000000,-1.000000
482149025.309022,0.117386,-0.012405,-1.012711,0.030036,0.008449,0.002405,0.999545,0.002658,-0.030030,-0.002405,0.999961,0.008449,0.030051,-0.008373,0.999513,0.030030,-0.008449,-0.999513,0.000381,-0.004322,-0.041731,0.005471,-0.007910,-0.006861,23.253735,27.716518,-1.000000,-1.000000,-1.000000
482149025.318678,0.117386,-0.012405,-1.012711,0.030036,0.008449,0.002405,0.999545,0.002658,-0.030030,-0.002405,0.999961,0.008449,0.030051,-0.008373,0.999513,0.030030,-0.008449,-0.999513,0.000381,-0.004322,-0.041731,0.005471,-0.007910,-0.006861,23.253735,27.716518,-1.000000,-1.000000,-1.000000
482149025.329267,0.045349,0.002258,-1.037628,0.030029,0.008468,0.002398,0.999546,0.002651,-0.030024,-0.002398,0.999961,0.008468,0.030045,-0.008392,0.999513,0.030024,-0.008468,-0.999513,0.049917,-0.003571,-0.030028,-0.002315,0.001754,0.002005,23.253735,27.716518,-1.000000,-1.000000,-1.000000
482149025.339143,-0.016205,0.001633,-1.026749,0.029990,0.008507,0.002358,0.999547,0.002612,-0.029984,-0.002358,0.999961,0.008507,0.030005,-0.008432,0.999514,0.029984,-0.008507,-0.999514,0.087402,-0.003899,-0.013196,0.000571,-0.003105,-0.006004,23.253735,27.716518,-1.000000,-1.000000,-1.000000
482149025.349181,-0.026276,-0.004395,-1.025330,0.029967,0.008515,0.002357,0.999548,0.002611,-0.029962,-0.002357,0.999961,0.008515,0.029983,-0.008440,0.999515,0.029962,-0.008515,-0.999515,0.015388,0.010773,-0.038113,0.006274,-0.000690,0.000134,23.253735,27.716518,-1.000000,-1.000000,-1.000000
482149025.359229,-0.092773,0.001694,-1.029388,0.029967,0.008515,0.002357,0.999548,0.002611,-0.029962,-0.002357,0.999961,0.008515,0.029983,-0.008440,0.999515,0.029962,-0.008515,-0.999515,0.015388,0.010773,-0.038113,0.006274,-0.000690,0.000134,23.253735,27.716518,-1.000000,-1.000000,-1.000000
482149025.369123,0.029922,-0.009506,-1.012177,0.029950,0.008511,0.002423,0.999548,0.002677,-0.029944,-0.002423,0.999961,0.008511,0.029966,-0.008435,0.999515,0.029944,-0.008511,-0.999515,-0.046149,0.010144,-0.027233,-0.001574,-0.006533,0.010378,23.253735,27.716518,-1.000000,-1.000000,-1.000000
482149025.379176,0.053238,-0.010345,-1.025345,0.029971,0.008502,0.002453,0.999547,0.002707,-0.029965,-0.002453,0.999961,0.008501,0.029987,-0.008424,0.999515,0.029965,-0.008501,-0.999515,-0.056241,0.004107,-0.025815,0.000033,0.002947,0.003286,23.253735,27.716518,-1.000000,-1.000000,-1.000000
482149025.389166,-0.004822,-0.003296,-1.039597,0.029926,0.008542,0.002532,0.999548,0.002786,-0.029920,-0.002532,0.999960,0.008542,0.029943,-0.008463,0.999516,0.029920,-0.008542,-0.999516,0.000002,-0.000964,-0.012661,0.005941,-0.004218,0.006038,23.253735,27.716518,-1.000000,-1.000000,-1.000000
482149025.399128,0.001648,-0.007904,-1.015839,0.029926,0.008542,0.002532,0.999548,0.002786,-0.029920,-0.002532,0.999960,0.008542,0.029943,-0.008463,0.999516,0.029920,-0.008542,-0.999516,0.000002,-0.000964,-0.012661,0.005941,-0.004218,0.006038,23.253735,27.716518,-1.000000,-1.000000,-1.000000
482149025.409173,-0.070755,0.002869,-1.035858,0.029876,0.008532,0.002568,0.999550,0.002822,-0.029870,-0.002568,0.999960,0.008532,0.029893,-0.008452,0.999517,0.029870,-0.008532,-0.999517,0.023368,-0.001813,-0.025827,0.000169,-0.003042,0.001023,23.253735,27.716518,-1.000000,-1.000000,-1.000000
482149025.419169,0.013565,-0.016724,-1.021805,0.029880,0.008479,0.002633,0.999550,0.002886,-0.029875,-0.002633,0.999961,0.008479,0.029898,-0.008397,0.999518,0.029875,-0.008479,-0.999518,-0.034697,0.005183,-0.040079,-0.004731,0.001764,0.001879,23.253735,27.716518,-1.000000,-1.000000,-1.000000
482149025.428646,0.013565,-0.016724,-1.021805,0.029880,0.008479,0.002633,0.999550,0.002886,-0.029875,-0.002633,0.999961,0.008479,0.029898,-0.008397,0.999518,0.029875,-0.008479,-0.999518,-0.034697,0.005183,-0.040079,-0.004731,0.001764,0.001879,23.253735,27.716518,-1.000000,-1.000000,-1.000000
482149025.439155,0.048065,-0.002609,-1.035477,0.029847,0.008486,0.002654,0.999550,0.002906,-0.029841,-0.002654,0.999960,0.008486,0.029865,-0.008403,0.999519,0.029841,-0.008486,-0.999519,-0.028193,0.000582,-0.016320,0.002519,-0.006622,0.002367,23.253735,27.716518,-1.000000,-1.000000,-1.000000
482149025.449171,0.083023,-0.011841,-1.013824,0.029758,0.008560,0.002766,0.999553,0.003020,-0.029752,-0.002766,0.999960,0.008560,0.029777,-0.008473,0.999521,0.029752,-0.008560,-0.999521,-0.016187,-0.008164,-0.022284,-0.002650,0.000612,0.007877,23.253735,27.716518,-1.000000,-1.000000,-1.000000
482149025.459196,0.152267,-0.008102,-1.019440,0.029779,0.008566,0.002807,0.999552,0.003061,-0.029773,-0.002807,0.999959,0.008566,0.029798,-0.008479,0.999520,0.029773,-0.008566,-0.999520,0.018292,0.005957,-0.035957,0.002450,0.000550,0.003443,23.253735,27.716518,-1.000000,-1.000000,-1.000000
482149025.469245,0.126587,0.000351,-1.031784,0.029779,0.008566,0.002807,0.999552,0.003061,-0.029773,-0.002807,0.999959,0.008566,0.029798,-0.008479,0.999520,0.029773,-0.008566,-0.999520,0.018292,0.005957,-0.035957,0.002450,0.000550,0.003443,23.253735,27.716518,-1.000000,-1.000000,-1.000000
482149025.479170,0.096558,0.001099,-1.021942,0.029756,0.008588,0.002777,0.999553,0.003032,-0.029750,-0.002777,0.999959,0.008588,0.029775,-0.008501,0.999520,0.029750,-0.008588,-0.999520,0.053273,-0.003253,-0.014304,-0.003189,0.002900,-0.003930,23.253735,27.716518,-1.000000,-1.000000,-1.000000
482149025.489214,0.145844,-0.009460,-1.046997,0.029782,0.008627,0.002835,0.999552,0.003091,-0.029777,-0.002835,0.999959,0.008627,0.029802,-0.008539,0.999519,0.029777,-0.008627,-0.999519,0.122491,0.000525,-0.019920,0.007280,0.002917,0.003662,23.253735,27.716518,-1.000000,-1.000000,-1.000000
482149025.499208,0.133728,-0.009140,-1.004013,0.029765,0.008626,0.002837,0.999552,0.003093,-0.029759,-0.002837,0.999959,0.008626,0.029785,-0.008537,0.999520,0.029759,-0.008626,-0.999520,0.066799,0.009724,-0.022422,0.000169,-0.005429,0.001055,23.253735,27.716518,-1.000000,-1.000000,-1.000000
482149025.509265,0.074554,-0.007034,-1.018280,0.029765,0.008626,0.002837,0.999552,0.003093,-0.029759,-0.002837,0.999959,0.008626,0.029785,-0.008537,0.999520,0.029759,-0.008626,-0.999520,0.066799,0.009724,-0.022422,0.000169,-0.005429,0.001055,23.253735,27.716518,-1.000000,-1.000000,-1.000000
482149025.519152,0.055954,-0.005508,-1.037857,0.029764,0.008638,0.002863,0.999552,0.003119,-0.029758,-0.002863,0.999959,0.008638,0.029784,-0.008549,0.999520,0.029758,-0.008638,-0.999520,0.116085,-0.000822,-0.047477,-0.000101,0.001775,0.005644,23.253735,27.716518,-1.000000,-1.000000,-1.000000
482149025.528405,0.055954,-0.005508,-1.037857,0.029790,0.008665,0.002848,0.999552,0.003105,-0.029785,-0.002848,0.999958,0.008665,0.029810,-0.008576,0.999519,0.029785,-0.008665,-0.999519,0.103943,-0.000475,-0.004494,-0.008220,0.000564,-0.000636,23.253735,27.716518,-1.000000,-1.000000,-1.000000
482149025.539507,0.009903,-0.008698,-1.004654,0.029768,0.008621,0.002911,0.999552,0.003166,-0.029762,-0.002911,0.999959,0.008621,0.029788,-0.008530,0.999520,0.029762,-0.008621,-0.999520,0.044792,0.001586,-0.018760,-0.002581,-0.005366,0.006785,23.253735,27.716518,-1.000000,-1.000000,-1.000000
482149025.548694,-0.052429,-0.002792,-1.031769,0.029768,0.008621,0.002911,0.999552,0.003166,-0.029762,-0.002911,0.999959,0.008621,0.029788,-0.008530,0.999520,0.029762,-0.008621,-0.999520,0.044792,0.001586,-0.018760,-0.002581,-0.005366,0.006785,23.253735,27.716518,-1.000000,-1.000000,-1.000000
482149025.559246,-0.067139,-0.016907,-1.039276,0.029756,0.008615,0.003058,0.999552,0.003313,-0.029750,-0.003058,0.999958,0.008615,0.029777,-0.008520,0.999520,0.029750,-0.008615,-0.999520,-0.019847,-0.000082,-0.005134,-0.000168,0.000592,0.006832,23.253735,27.716518,-1.000000,-1.000000,-1.000000
482149025.569084,-0.047211,0.002365,-1.016953,0.029783,0.008601,0.003061,0.999551,0.003316,-0.029777,-0.003061,0.999958,0.008600,0.029804,-0.008505,0.999520,0.029777,-0.008600,-0.999520,-0.082206,0.005808,-0.032249,-0.000841,0.004093,-0.002650,23.253735,27.716518,-1.000000,-1.000000,-1.000000
482149025.579188,0.066956,-0.009979,-1.006058,0.029783,0.008601,0.003061,0.999551,0.003316,-0.029777,-0.003061,0.999958,0.008600,0.029804,-0.008505,0.999520,0.029777,-0.008600,-0.999520,-0.082206,0.005808,-0.032249,-0.000841,0.004093,-0.002650,23.253735,27.716518,-1.000000,-1.000000,-1.000000
482149025.589193,0.003983,0.004578,-1.053726,0.029798,0.008626,0.003095,0.999551,0.003351,-0.029792,-0.003095,0.999958,0.008626,0.029820,-0.008530,0.999519,0.029792,-0.008626,-0.999519,-0.096931,-0.008281,-0.039757,0.009695,0.002906,0.003788,23.253735,27.716518,-1.000000,-1.000000,-1.000000
482149025.599177,-0.021317,-0.011093,-1.010361,0.029808,0.008672,0.003116,0.999550,0.003373,-0.029802,-0.003116,0.999958,0.008672,0.029830,-0.008575,0.999518,0.029802,-0.008672,-0.999518,-0.077013,0.011037,-0.017434,0.002517,-0.001848,0.002304,23.253735,27.716518,-1.000000,-1.000000,-1.000000
482149025.608981,-0.076797,-0.004929,-1.018646,0.029806,0.008709,0.003145,0.999550,0.003403,-0.029801,-0.003145,0.999957,0.008708,0.029829,-0.008611,0.999518,0.029801,-0.008708,-0.999518,-0.025818,0.013286,-0.054208,0.000302,-0.001869,-0.001336,23.253735,27.716518,-1.000000,-1.000000,-1.000000
482149025.619415,0.006348,-0.008804,-1.011658,0.029806,0.008709,0.003145,0.999550,0.003403,-0.029801,-0.003145,0.999957,0.008708,0.029829,-0.008611,0.999518,0.029801,-0.008708,-0.999518,-0.025818,0.013286,-0.054208,0.000302,-0.001869,-0.001336,23.253735,27.716518,-1.000000,-1.000000,-1.000000
482149025.629319,0.053589,-0.002457,-1.028336,0.029789,0.008711,0.003149,0.999551,0.003407,-0.029784,-0.003149,0.999957,0.008710,0.029812,-0.008613,0.999518,0.029784,-0.008710,-0.999518,-0.051100,-0.002383,-0.010842,-0.001175,0.002952,0.003223,23.253735,27.716518,-1.000000,-1.000000,-1.000000
482149025.638501,0.053589,-0.002457,-1.028336,0.029783,0.008789,0.003141,0.999551,0.003401,-0.029777,-0.003141,0.999956,0.008789,0.029806,-0.008692,0.999518,0.029777,-0.008789,-0.999518,-0.106575,0.003861,-0.019128,-0.000941,0.003369,0.001966,23.253735,27.716518,-1.000000,-1.000000,-1.000000
482149025.649183,0.219772,-0.008987,-0.994980,0.029783,0.008789,0.003141,0.999551,0.003401,-0.029777,-0.003141,0.999956,0.008789,0.029806,-0.008692,0.999518,0.029777,-0.008789,-0.999518,-0.106575,0.003861,-0.019128,-0.000941,0.003369,0.001966,23.253735,27.716518,-1.000000,-1.000000,-1.000000
482149025.659172,0.210632,0.000504,-1.021866,0.029797,0.008770,0.003154,0.999550,0.003413,-0.029792,-0.003153,0.999957,0.008770,0.029820,-0.008672,0.999518,0.029792,-0.008770,-0.999518,-0.023444,-0.000034,-0.012140,0.000402,-0.000238,-0.000267,23.253735,27.716518,-1.000000,-1.000000,-1.000000
482149025.669178,0.062775,-0.011368,-1.039322,0.029776,0.008809,0.003230,0.999551,0.003491,-0.029771,-0.003230,0.999956,0.008809,0.029800,-0.008708,0.999518,0.029771,-0.008809,-0.999518,0.190002,-0.000179,0.004538,-0.005772,0.002196,0.001730,23.253735,27.716518,-1.000000,-1.000000,-1.000000
482149025.679170,0.031540,-0.003632,-1.020905,0.029763,0.008790,0.003227,0.999551,0.003487,-0.029758,-0.003227,0.999956,0.008790,0.029787,-0.008690,0.999519,0.029758,-0.008790,-0.999519,0.180875,0.009294,-0.022347,0.000403,-0.002625,-0.000235,23.253735,27.716518,-1.000000,-1.000000,-1.000000
482149025.689307,0.116531,-0.005493,-1.011887,0.029763,0.008790,0.003227,0.999551,0.003487,-0.029758,-0.003227,0.999956,0.008790,0.029787,-0.008690,0.999519,0.029758,-0.008790,-0.999519,0.180875,0.009294,-0.022347,0.000403,-0.002625,-0.000235,23.253735,27.716518,-1.000000,-1.000000,-1.000000
482149025.699177,0.137527,0.000656,-1.015579,0.029759,0.008815,0.003196,0.999551,0.003456,-0.029753,-0.003196,0.999956,0.008815,0.029782,-0.008716,0.999518,0.029753,-0.008815,-0.999518,0.033021,-0.002553,-0.039803,-0.005570,-0.001416,-0.001736,23.253735,27.716518,-1.000000,-1.000000,-1.000000
482149025.709149,0.123138,-0.009323,-1.008530,0.029767,0.008884,0.003238,0.999551,0.003500,-0.029762,-0.003237,0.999955,0.008884,0.029792,-0.008783,0.999518,0.029762,-0.008884,-0.999518,0.001778,0.005252,-0.021387,0.009863,0.000946,0.003734,23.253735,27.716518,-1.000000,-1.000000,-1.000000
482149025.719350,0.070358,-0.003265,-1.030243,0.029780,0.008885,0.003243,0.999551,0.003506,-0.029774,-0.003243,0.999955,0.008885,0.029804,-0.008785,0.999517,0.029774,-0.008885,-0.999517,0.107754,0.009541,-0.016062,-0.002080,-0.004991,0.000843,23.253735,27.716518,-1.000000,-1.000000,-1.000000
482149025.729281,0.028992,-0.010712,-1.031647,0.029780,0.008885,0.003243,0.999551,0.003506,-0.029774,-0.003243,0.999955,0.008885,0.029804,-0.008785,0.999517,0.029774,-0.008885,-0.999517,0.107754,0.009541,-0.016062,-0.002080,-0.004991,0.000843,23.253735,27.716518,-1.000000,-1.000000,-1.000000
482149025.739130,-0.044296,-0.003540,-1.018646,0.029788,0.008904,0.003284,0.999550,0.003547,-0.029783,-0.003283,0.999955,0.008904,0.029813,-0.008802,0.999517,0.029783,-0.008904,-0.999517,0.093356,-0.000419,-0.009013,0.000133,0.002192,0.004387,23.253735,27.716518,-1.000000,-1.000000,-1.000000
482149025.749198,-0.044296,-0.003540,-1.018646,0.029833,0.008976,0.003344,0.999549,0.003610,-0.029827,-0.003344,0.999954,0.008976,0.029858,-0.008873,0.999515,0.029827,-0.008976,-0.999515,0.040531,0.005711,-0.030728,0.007447,0.002150,0.003592,23.253735,27.716518,-1.000000,-1.000000,-1.000000
482149025.759240,-0.097672,-0.004349,-1.032516,0.029833,0.008976,0.003344,0.999549,0.003610,-0.029827,-0.003344,0.999954,0.008976,0.029858,-0.008873,0.999515,0.029827,-0.008976,-0.999515,0.040531,0.005711,-0.030728,0.007447,0.002150,0.003592,23.253735,27.716518,-1.000000,-1.000000,-1.000000
482149025.769215,0.029053,-0.005569,-1.012283,0.029864,0.008958,0.003335,0.999548,0.003601,-0.029858,-0.003335,0.999954,0.008958,0.029889,-0.008854,0.999514,0.029858,-0.008958,-0.999514,-0.000867,-0.001754,-0.032133,0.000266,0.005751,0.001997,23.253735,27.716518,-1.000000,-1.000000,-1.000000
482149025.779150,0.058929,-0.004288,-1.019257,0.029898,0.009003,0.003389,0.999546,0.003657,-0.029893,-0.003389,0.999954,0.009002,0.029924,-0.008897,0.999513,0.029893,-0.009002,-0.999513,-0.127564,0.004654,-0.033004,-0.000996,0.001023,0.003133,23.253735,27.716518,-1.000000,-1.000000,-1.000000
482149025.789180,-0.016556,0.000519,-1.039383,0.029869,0.008989,0.003413,0.999547,0.003680,-0.029863,-0.003413,0.999954,0.008989,0.029895,-0.008883,0.999514,0.029863,-0.008989,-0.999514,-0.127535,0.004640,-0.033003,0.000079,-0.001349,0.005570,23.253735,27.716518,-1.000000,-1.000000,-1.000000
482149025.799119,-0.042953,-0.011566,-1.029144,0.029869,0.008989,0.003413,0.999547,0.003680,-0.029863,-0.003413,0.999954,0.008989,0.029895,-0.008883,0.999514,0.029863,-0.008989,-0.999514,-0.127535,0.004640,-0.033003,0.000079,-0.001349,0.005570,23.253735,27.716518,-1.000000,-1.000000,-1.000000
482149025.809167,-0.074127,-0.004044,-1.031113,0.029832,0.009033,0.003500,0.999548,0.003768,-0.029826,-0.003500,0.999953,0.009033,0.029859,-0.008924,0.999514,0.029826,-0.009033,-0.999514,0.029103,0.004745,-0.019742,-0.001130,-0.000150,0.005491,23.253735,27.716518,-1.000000,-1.000000,-1.000000
482149025.819191,-0.012207,-0.015213,-1.036011,0.029836,0.009025,0.003524,0.999548,0.003792,-0.029830,-0.003524,0.999953,0.009024,0.029863,-0.008915,0.999514,0.029830,-0.009024,-0.999514,-0.046386,0.009543,-0.039869,0.000347,-0.002584,0.000901,23.253735,27.716518,-1.000000,-1.000000,-1.000000
482149025.828340,0.043808,-0.003601,-1.029877,0.029836,0.009025,0.003524,0.999548,0.003792,-0.029830,-0.003524,0.999953,0.009024,0.029863,-0.008915,0.999514,0.029830,-0.009024,-0.999514,-0.046386,0.009543,-0.039869,0.000347,-0.002584,0.000901,23.253735,27.716518,-1.000000,-1.000000,-1.000000
482149025.839324,0.097504,-0.006836,-1.024673,0.029761,0.009031,0.003552,0.999550,0.003819,-0.029755,-0.003551,0.999953,0.009031,0.029788,-0.008921,0.999516,0.029755,-0.009031,-0.999516,-0.103882,0.004988,-0.031596,0.003703,-0.002557,0.005774,23.253735,27.716518,-1.000000,-1.000000,-1.000000
482149025.848775,0.097504,-0.006836,-1.024673,0.029764,0.009024,0.003548,0.999550,0.003815,-0.029759,-0.003548,0.999953,0.009024,0.029792,-0.008914,0.999516,0.029759,-0.009024,-0.999516,-0.103886,0.004980,-0.031596,-0.000727,-0.001406,-0.001520,23.253735,27.716518,-1.000000,-1.000000,-1.000000
482149025.859238,0.128571,-0.009171,-0.999451,0.029761,0.009009,0.003537,0.999550,0.003803,-0.029755,-0.003537,0.999953,0.009009,0.029788,-0.008900,0.999517,0.029755,-0.009009,-0.999517,0.014053,0.005408,-0.030360,0.001553,0.002185,0.000900,23.253735,27.716518,-1.000000,-1.000000,-1.000000
482149025.869257,0.153915,-0.004242,-1.030075,0.029761,0.009009,0.003537,0.999550,0.003803,-0.029755,-0.003537,0.999953,0.009009,0.029788,-0.008900,0.999517,0.029755,-0.009009,-0.999517,0.014053,0.005408,-0.030360,0.001553,0.002185,0.000900,23.253735,27.716518,-1.000000,-1.000000,-1.000000
482149025.879211,0.012741,-0.010803,-1.021927,0.029748,0.009012,0.003566,0.999550,0.003833,-0.029742,-0.003566,0.999953,0.009012,0.029775,-0.008902,0.999517,0.029742,-0.009012,-0.999517,0.067761,0.002176,-0.025156,0.001487,-0.000192,0.002103,23.253735,27.716518,-1.000000,-1.000000,-1.000000
482149025.889162,0.063004,-0.006256,-1.022858,0.029722,0.008947,0.003570,0.999551,0.003834,-0.029717,-0.003570,0.999954,0.008947,0.029750,-0.008837,0.999518,0.029717,-0.008947,-0.999518,0.124199,0.004705,-0.030557,-0.000861,-0.002579,0.000838,23.253735,27.716518,-1.000000,-1.000000,-1.000000
482149025.899170,0.167618,-0.009811,-1.012665,0.029742,0.008998,0.003665,0.999550,0.003931,-0.029737,-0.003665,0.999953,0.008998,0.029771,-0.008885,0.999517,0.029737,-0.008998,-0.999517,0.124179,0.004756,-0.030558,0.006922,0.003458,0.012910,23.253735,27.716518,-1.000000,-1.000000,-1.000000
482149025.909205,0.108032,-0.007660,-1.019196,0.029742,0.008998,0.003665,0.999550,0.003931,-0.029737,-0.003665,0.999953,0.008998,0.029771,-0.008885,0.999517,0.029737,-0.008998,-0.999517,0.124179,0.004756,-0.030558,0.006922,0.003458,0.012910,23.253735,27.716518,-1.000000,-1.000000,-1.000000
482149025.919196,0.069962,0.001572,-1.039047,0.029716,0.009047,0.003752,0.999550,0.004019,-0.029711,-0.003752,0.999952,0.009047,0.029746,-0.008932,0.999518,0.029711,-0.009047,-0.999518,0.033293,0.002791,-0.023340,0.002696,-0.002584,0.002198,23.253735,27.716518,-1.000000,-1.000000,-1.000000
482149025.929186,0.018555,-0.013702,-1.021545,0.029720,0.009044,0.003797,0.999550,0.004064,-0.029715,-0.003797,0.999952,0.009044,0.029750,-0.008927,0.999518,0.029715,-0.009044,-0.999518,0.137903,-0.000767,-0.013147,-0.002202,0.001044,0.003029,23.253735,27.716518,-1.000000,-1.000000,-1.000000
482149025.939124,-0.051224,0.003128,-1.033722,0.029720,0.009044,0.003797,0.999550,0.004064,-0.029715,-0.003797,0.999952,0.009044,0.029750,-0.008927,0.999518,0.029715,-0.009044,-0.999518,0.137903,-0.000767,-0.013147,-0.002202,0.001044,0.003029,23.253735,27.716518,-1.000000,-1.000000,-1.000000
482149025.949162,-0.080475,-0.013962,-1.027481,0.029695,0.009074,0.003786,0.999551,0.004054,-0.029689,-0.003786,0.999952,0.009074,0.029724,-0.008957,0.999518,0.029689,-0.009074,-0.999518,0.040272,0.010646,-0.039529,0.006522,-0.003808,-0.001152,23.253735,27.716518,-1.000000,-1.000000,-1.000000
482149025.958791,-0.080475,-0.013962,-1.027481,0.029726,0.009089,0.003777,0.999550,0.004046,-0.029720,-0.003777,0.999952,0.009089,0.029755,-0.008972,0.999517,0.029720,-0.009089,-0.999517,0.040241,0.010660,-0.039530,-0.002069,0.003410,0.000655,23.253735,27.716518,-1.000000,-1.000000,-1.000000
482149025.969252,-0.045807,-0.007446,-1.010910,0.029690,0.009028,0.003823,0.999551,0.004090,-0.029684,-0.003823,0.999952,0.009028,0.029720,-0.008911,0.999519,0.029684,-0.009028,-0.999519,-0.080908,0.012156,-0.034203,-0.003542,-0.004898,0.005389,23.253735,27.716518,-1.000000,-1.000000,-1.000000
482149025.979173,0.063004,-0.006454,-1.041306,0.029690,0.009028,0.003823,0.999551,0.004090,-0.029684,-0.003823,0.999952,0.009028,0.029720,-0.008911,0.999519,0.029684,-0.009028,-0.999519,-0.080908,0.012156,-0.034203,-0.003542,-0.004898,0.005389,23.253735,27.716518,-1.000000,-1.000000,-1.000000
482149025.989188,-0.037064,-0.008499,-1.027878,0.029655,0.009020,0.003842,0.999552,0.004108,-0.029650,-0.003842,0.999952,0.009020,0.029685,-0.008902,0.999520,0.029650,-0.009020,-0.999520,-0.110124,-0.004942,-0.027961,0.000417,-0.004966,-0.000279,23.253735,27.716518,-1.000000,-1.000000,-1.000000
482149025.999177,-0.054443,-0.012558,-1.017197,0.029613,0.008984,0.003813,0.999553,0.004078,-0.029608,-0.003813,0.999952,0.008984,0.029643,-0.008867,0.999521,0.029608,-0.008984,-0.999521,0.033396,0.002529,-0.041784,-0.005691,-0.000155,0.000514,23.253735,27.716518,-1.000000,-1.000000,-1.000000
482149026.009277,-0.074005,-0.003265,-1.051514,0.029612,0.008966,0.003804,0.999553,0.004068,-0.029606,-0.003804,0.999953,0.008965,0.029641,-0.008849,0.999521,0.029606,-0.008965,-0.999521,-0.066670,0.000466,-0.028356,-0.000859,-0.002563,0.000798,23.253735,27.716518,-1.000000,-1.000000,-1.000000
482149026.019293,-0.065842,-0.006805,-1.021820,0.029612,0.008966,0.003804,0.999553,0.004068,-0.029606,-0.003804,0.999953,0.008965,0.029641,-0.008849,0.999521,0.029606,-0.008965,-0.999521,-0.066670,0.000466,-0.028356,-0.000859,-0.002563,0.000798,23.253735,27.716518,-1.000000,-1.000000,-1.000000
482149026.029028,0.080933,-0.000916,-1.006317,0.029603,0.008955,0.003835,0.999554,0.004098,-0.029597,-0.003835,0.999953,0.008955,0.029633,-0.008838,0.999522,0.029597,-0.008955,-0.999522,-0.084041,-0.003603,-0.017675,-0.000927,0.001028,0.001921,23.253735,27.716518,-1.000000,-1.000000,-1.000000
482149026.039172,0.223221,-0.003891,-0.983170,0.029629,0.008937,0.003809,0.999553,0.004072,-0.029623,-0.003809,0.999953,0.008937,0.029658,-0.008820,0.999521,0.029623,-0.008937,-0.999521,-0.103628,0.005672,-0.051992,-0.003008,0.002180,-0.004077,23.253735,27.716518,-1.000000,-1.000000,-1.000000
482149026.049158,0.231537,-0.003082,-1.009888,0.029629,0.008937,0.003809,0.999553,0.004072,-0.029623,-0.003809,0.999953,0.008937,0.029658,-0.008820,0.999521,0.029623,-0.008937,-0.999521,-0.103628,0.005672,-0.051992,-0.003008,0.002180,-0.004077,23.253735,27.716518,-1.000000,-1.000000,-1.000000
482149026.059128,0.111237,-0.008850,-1.043259,0.029653,0.008961,0.003830,0.999552,0.004094,-0.029647,-0.003830,0.999952,0.008961,0.029682,-0.008843,0.999520,0.029647,-0.008961,-0.999520,0.051286,0.008045,-0.006797,0.000414,0.002196,-0.000375,23.253735,27.716518,-1.000000,-1.000000,-1.000000
482149026.068907,0.111237,-0.008850,-1.043259,0.029667,0.009037,0.003828,0.999552,0.004094,-0.029661,-0.003828,0.999952,0.009037,0.029697,-0.008919,0.999519,0.029661,-0.009037,-0.999519,0.193559,0.005146,0.016350,0.006386,0.002181,0.001111,23.253735,27.716518,-1.000000,-1.000000,-1.000000
482149026.079297,0.051346,-0.001038,-0.985748,0.029653,0.009015,0.003864,0.999552,0.004130,-0.029647,-0.003864,0.999952,0.009015,0.029683,-0.008896,0.999520,0.029647,-0.009015,-0.999520,0.201890,0.005933,-0.010368,0.000416,-0.002579,-0.000311,23.253735,27.716518,-1.000000,-1.000000,-1.000000
482149026.089091,0.129272,0.000443,-1.026749,0.029653,0.009015,0.003864,0.999552,0.004130,-0.029647,-0.003864,0.999952,0.009015,0.029683,-0.008896,0.999520,0.029647,-0.009015,-0.999520,0.201890,0.005933,-0.010368,0.000416,-0.002579,-0.000311,23.253735,27.716518,-1.000000,-1.000000,-1.000000
482149026.099145,0.141815,-0.003143,-1.005554,0.029640,0.008990,0.003887,0.999552,0.004152,-0.029635,-0.003887,0.999952,0.008990,0.029671,-0.008871,0.999520,0.029635,-0.008990,-0.999520,0.081602,0.000140,-0.043738,-0.000927,-0.000165,0.001937,23.253735,27.716518,-1.000000,-1.000000,-1.000000
482149026.109082,0.156509,-0.001953,-1.003738,0.029653,0.008969,0.003907,0.999552,0.004171,-0.029648,-0.003907,0.999952,0.008969,0.029684,-0.008849,0.999520,0.029648,-0.008969,-0.999520,0.099625,0.009412,-0.027228,0.009943,-0.000211,0.002502,23.253735,27.716518,-1.000000,-1.000000,-1.000000
482149026.119066,0.061005,-0.002487,-1.038574,0.029657,0.008974,0.003871,0.999552,0.004136,-0.029651,-0.003871,0.999952,0.008974,0.029687,-0.008855,0.999520,0.029651,-0.008974,-0.999520,0.112164,0.005830,-0.006034,-0.004216,0.000991,-0.004124,23.253735,27.716518,-1.000000,-1.000000,-1.000000
482149026.129157,0.010254,-0.010925,-1.030823,0.029657,0.008974,0.003871,0.999552,0.004136,-0.029651,-0.003871,0.999952,0.008974,0.029687,-0.008855,0.999520,0.029651,-0.008974,-0.999520,0.112164,0.005830,-0.006034,-0.004216,0.000991,-0.004124,23.253735,27.716518,-1.000000,-1.000000,-1.000000
482149026.139081,-0.028183,-0.008209,-1.009857,0.029665,0.008903,0.003884,0.999551,0.004147,-0.029659,-0.003884,0.999953,0.008903,0.029695,-0.008784,0.999520,0.029659,-0.008903,-0.999520,0.126850,0.006950,-0.004218,-0.006766,0.002216,-0.001923,23.253735,27.716518,-1.000000,-1.000000,-1.000000
482149026.149068,-0.082291,-0.004272,-1.044220,0.029702,0.008867,0.003896,0.999550,0.004157,-0.029696,-0.003896,0.999953,0.008867,0.029732,-0.008747,0.999520,0.029696,-0.008867,-0.999520,0.031308,0.006380,-0.039055,-0.002070,0.004603,0.000639,23.253735,27.716518,-1.000000,-1.000000,-1.000000
482149026.158932,-0.097733,-0.006332,-1.032501,0.029698,0.008823,0.003958,0.999550,0.004218,-0.029693,-0.003958,0.999953,0.008823,0.029729,-0.008701,0.999520,0.029693,-0.008823,-0.999520,-0.057876,0.000613,-0.010337,-0.003410,0.001049,0.002966,23.253735,27.716518,-1.000000,-1.000000,-1.000000
482149026.169151,0.017853,-0.001831,-1.021744,0.029698,0.008823,0.003958,0.999550,0.004218,-0.029693,-0.003958,0.999953,0.008823,0.029729,-0.008701,0.999520,0.029693,-0.008823,-0.999520,-0.057876,0.000613,-0.010337,-0.003410,0.001049,0.002966,23.253735,27.716518,-1.000000,-1.000000,-1.000000
482149026.178777,0.017853,-0.001831,-1.021744,0.029696,0.008882,0.003972,0.999550,0.004234,-0.029691,-0.003972,0.999953,0.008881,0.029727,-0.008759,0.999520,0.029691,-0.008881,-0.999520,-0.111982,0.004609,-0.044700,0.005112,-0.000191,0.002251,23.253735,27.716518,-1.000000,-1.000000,-1.000000
482149026.189080,-0.046982,-0.009613,-1.026489,0.029709,0.008900,0.003955,0.999550,0.004218,-0.029704,-0.003955,0.999953,0.008900,0.029740,-0.008779,0.999519,0.029704,-0.008900,-0.999519,-0.127436,0.002568,-0.032982,0.005514,0.000939,-0.004793,23.253735,27.716518,-1.000000,-1.000000,-1.000000
482149026.199077,-0.052307,-0.007599,-1.018112,0.029709,0.008900,0.003955,0.999550,0.004218,-0.029704,-0.003955,0.999953,0.008900,0.029740,-0.008779,0.999519,0.029704,-0.008900,-0.999519,-0.127436,0.002568,-0.032982,0.005514,0.000939,-0.004793,23.253735,27.716518,-1.000000,-1.000000,-1.000000
482149026.208611,-0.060822,0.003983,-1.037216,0.029713,0.008915,0.003952,0.999550,0.004215,-0.029708,-0.003952,0.999952,0.008915,0.029744,-0.008794,0.999519,0.029708,-0.008915,-0.999519,-0.011855,0.007084,-0.022225,-0.003410,-0.000145,0.002982,23.253735,27.716518,-1.000000,-1.000000,-1.000000
482149026.219127,-0.019531,-0.013214,-1.026764,0.029731,0.008955,0.003978,0.999549,0.004243,-0.029726,-0.003978,0.999952,0.008955,0.029762,-0.008833,0.999518,0.029726,-0.008955,-0.999518,-0.082033,0.001356,-0.018594,-0.003009,0.003373,-0.004093,23.253735,27.716518,-1.000000,-1.000000,-1.000000
482149026.229149,0.061218,-0.001343,-1.024017,0.029713,0.008942,0.003996,0.999550,0.004260,-0.029708,-0.003996,0.999952,0.008941,0.029744,-0.008819,0.999519,0.029708,-0.008941,-0.999519,-0.090529,0.012924,-0.037698,0.000147,-0.002537,0.004374,23.253735,27.716518,-1.000000,-1.000000,-1.000000
482149026.239079,0.109802,-0.011765,-1.036499,0.029713,0.008942,0.003996,0.999550,0.004260,-0.029708,-0.003996,0.999952,0.008941,0.029744,-0.008819,0.999519,0.029708,-0.008941,-0.999519,-0.090529,0.012924,-0.037698,0.000147,-0.002537,0.004374,23.253735,27.716518,-1.000000,-1.000000,-1.000000
482149026.249133,0.160660,-0.008713,-0.992706,0.029715,0.008997,0.004072,0.999549,0.004337,-0.029710,-0.004072,0.999951,0.008997,0.029747,-0.008872,0.999518,0.029710,-0.008997,-0.999518,-0.049241,-0.004218,-0.027246,0.003905,-0.002573,0.002220,23.253735,27.716518,-1.000000,-1.000000,-1.000000
482149026.259133,0.174942,0.000900,-1.034698,0.029724,0.008990,0.004052,0.999549,0.004317,-0.029719,-0.004052,0.999951,0.008990,0.029756,-0.008865,0.999518,0.029719,-0.008990,-0.999518,0.031499,0.007647,-0.024499,-0.000526,0.000965,-0.005107,23.253735,27.716518,-1.000000,-1.000000,-1.000000
482149026.269329,0.061234,-0.011276,-1.028732,0.029760,0.008903,0.004027,0.999548,0.004290,-0.029754,-0.004026,0.999952,0.008903,0.029791,-0.008779,0.999518,0.029754,-0.008903,-0.999518,0.130906,0.000190,0.006811,-0.000661,0.003373,-0.002796,23.253735,27.716518,-1.000000,-1.000000,-1.000000
482149026.279085,0.050659,-0.003311,-1.011017,0.029760,0.008903,0.004027,0.999548,0.004290,-0.029754,-0.004026,0.999952,0.008903,0.029791,-0.008779,0.999518,0.029754,-0.008903,-0.999518,0.130906,0.000190,0.006811,-0.000661,0.003373,-0.002796,23.253735,27.716518,-1.000000,-1.000000,-1.000000
482149026.288613,0.050659,-0.003311,-1.011017,0.029780,0.008884,0.004033,0.999547,0.004296,-0.029775,-0.004033,0.999952,0.008884,0.029811,-0.008760,0.999517,0.029775,-0.008884,-0.999517,0.145168,0.009784,-0.035181,-0.003344,0.001038,0.001795,23.253735,27.716518,-1.000000,-1.000000,-1.000000
482149026.299093,0.140457,-0.003281,-1.017303,0.029832,0.008797,0.004046,0.999546,0.004306,-0.029826,-0.004045,0.999953,0.008797,0.029863,-0.008672,0.999516,0.029826,-0.008797,-0.999516,0.031407,-0.002480,-0.029216,0.000345,0.006980,0.000733,23.253735,27.716518,-1.000000,-1.000000,-1.000000
482149026.309101,0.152878,-0.004257,-1.029175,0.029832,0.008797,0.004046,0.999546,0.004306,-0.029826,-0.004045,0.999953,0.008797,0.029863,-0.008672,0.999516,0.029826,-0.008797,-0.999516,0.031407,-0.002480,-0.029216,0.000345,0.006980,0.000733,23.253735,27.716518,-1.000000,-1.000000,-1.000000
482149026.319140,0.102112,-0.008514,-1.001053,0.029852,0.008789,0.004053,0.999545,0.004313,-0.029847,-0.004052,0.999953,0.008789,0.029883,-0.008664,0.999516,0.029847,-0.008789,-0.999516,0.020813,0.005478,-0.011501,0.000415,-0.001386,-0.000327,23.253735,27.716518,-1.000000,-1.000000,-1.000000
482149026.329185,0.060455,0.002563,-1.026047,0.029827,0.008778,0.004105,0.999546,0.004365,-0.029821,-0.004105,0.999953,0.008778,0.029858,-0.008652,0.999517,0.029821,-0.008778,-0.999517,0.123057,0.004521,-0.029658,0.002562,-0.002547,0.004499,23.253735,27.716518,-1.000000,-1.000000,-1.000000
482149026.339158,-0.045532,-0.011459,-1.017654,0.029770,0.008753,0.004134,0.999547,0.004393,-0.029765,-0.004134,0.999953,0.008753,0.029802,-0.008626,0.999519,0.029765,-0.008753,-0.999519,0.072347,0.000239,-0.001534,-0.004550,-0.004924,0.001812,23.253735,27.716518,-1.000000,-1.000000,-1.000000
482149026.349097,-0.071228,-0.011948,-1.033737,0.029770,0.008753,0.004134,0.999547,0.004393,-0.029765,-0.004134,0.999953,0.008753,0.029802,-0.008626,0.999519,0.029765,-0.008753,-0.999519,0.072347,0.000239,-0.001534,-0.004550,-0.004924,0.001812,23.253735,27.716518,-1.000000,-1.000000,-1.000000
482149026.359189,-0.048782,-0.000702,-1.025757,0.029805,0.008743,0.004159,0.999546,0.004418,-0.029800,-0.004159,0.999953,0.008743,0.029837,-0.008615,0.999518,0.029800,-0.008743,-0.999518,0.030655,0.011306,-0.026529,-0.006901,0.002237,0.000419,23.253735,27.716518,-1.000000,-1.000000,-1.000000
482149026.369172,0.050079,-0.010361,-1.021637,0.029809,0.008742,0.004140,0.999546,0.004398,-0.029804,-0.004139,0.999953,0.008741,0.029841,-0.008614,0.999518,0.029804,-0.008741,-0.999518,-0.075336,-0.002718,-0.018137,0.005379,-0.000233,-0.002435,23.253735,27.716518,-1.000000,-1.000000,-1.000000
482149026.379209,-0.019577,-0.009247,-1.023895,0.029809,0.008742,0.004140,0.999546,0.004398,-0.029804,-0.004139,0.999953,0.008741,0.029841,-0.008614,0.999518,0.029804,-0.008741,-0.999518,-0.075336,-0.002718,-0.018137,0.005379,-0.000233,-0.002435,23.253735,27.716518,-1.000000,-1.000000,-1.000000
482149026.389189,-0.065659,-0.009827,-1.026642,0.029806,0.008761,0.004106,0.999546,0.004366,-0.029800,-0.004106,0.999953,0.008761,0.029837,-0.008634,0.999518,0.029800,-0.008761,-0.999518,-0.078582,0.008059,-0.026239,-0.003008,-0.001402,-0.004029,23.253735,27.716518,-1.000000,-1.000000,-1.000000
482149026.399120,-0.065659,-0.009827,-1.026642,0.029793,0.008797,0.004142,0.999547,0.004402,-0.029787,-0.004142,0.999953,0.008797,0.029825,-0.008669,0.999518,0.029787,-0.008797,-0.999518,0.020292,-0.001564,-0.022119,0.001353,-0.000155,0.004405,23.253735,27.716518,-1.000000,-1.000000,-1.000000
482149026.409227,-0.075775,-0.001129,-1.036118,0.029767,0.008822,0.004104,0.999547,0.004364,-0.029762,-0.004103,0.999953,0.008822,0.029799,-0.008696,0.999518,0.029762,-0.008822,-0.999518,-0.049339,-0.000425,-0.024377,0.000547,0.003367,-0.002733,23.253735,27.716518,-1.000000,-1.000000,-1.000000
482149026.419109,-0.040115,-0.007523,-1.025131,0.029767,0.008822,0.004104,0.999547,0.004364,-0.029762,-0.004103,0.999953,0.008822,0.029799,-0.008696,0.999518,0.029762,-0.008822,-0.999518,-0.049339,-0.000425,-0.024377,0.000547,0.003367,-0.002733,23.253735,27.716518,-1.000000,-1.000000,-1.000000
482149026.429165,0.035431,-0.000610,-1.018768,0.029793,0.008825,0.004105,0.999547,0.004366,-0.029787,-0.004105,0.999953,0.008825,0.029825,-0.008699,0.999517,0.029787,-0.008825,-0.999517,-0.095446,-0.001001,-0.027125,0.000480,0.000991,-0.001530,23.253735,27.716518,-1.000000,-1.000000,-1.000000
482149026.439181,0.090912,-0.005997,-1.029938,0.029828,0.008814,0.004179,0.999545,0.004440,-0.029822,-0.004179,0.999952,0.008814,0.029860,-0.008685,0.999516,0.029822,-0.008814,-0.999516,-0.069938,0.001291,-0.025615,0.001421,-0.001359,0.003249,23.253735,27.716518,-1.000000,-1.000000,-1.000000
482149026.449197,0.212448,-0.009186,-1.005127,0.029804,0.008829,0.004176,0.999546,0.004437,-0.029799,-0.004176,0.999952,0.008829,0.029836,-0.008700,0.999517,0.029799,-0.008829,-0.999517,0.005632,0.008218,-0.019251,0.002897,-0.002600,-0.001357,23.253735,27.716518,-1.000000,-1.000000,-1.000000
482149026.459175,0.225998,-0.004013,-0.998550,0.029804,0.008829,0.004176,0.999546,0.004437,-0.029799,-0.004176,0.999952,0.008829,0.029836,-0.008700,0.999517,0.029799,-0.008829,-0.999517,0.005632,0.008218,-0.019251,0.002897,-0.002600,-0.001357,23.253735,27.716518,-1.000000,-1.000000,-1.000000
482149026.469209,0.102493,-0.003021,-1.042892,0.029878,0.008847,0.004185,0.999544,0.004447,-0.029872,-0.004185,0.999952,0.008847,0.029910,-0.008718,0.999515,0.029872,-0.008847,-0.999515,0.061040,0.002850,-0.030423,-0.004553,0.003430,0.001700,0.000000,0.000000,-1.000000,-1.000000,-1.000000
482149026.479178,0.151413,0.002991,-0.998245,0.029869,0.008794,0.004213,0.999544,0.004473,-0.029863,-0.004212,0.999952,0.008794,0.029901,-0.008664,0.999515,0.029863,-0.008794,-0.999515,0.182585,-0.000392,-0.005612,-0.001027,-0.000332,0.004260,0.000000,0.000000,-1.000000,-1.000000,-1.000000
482149026.489186,0.149811,0.000717,-1.024551,0.029869,0.008794,0.004213,0.999544,0.004473,-0.029863,-0.004212,0.999952,0.008794,0.029901,-0.008664,0.999515,0.029863,-0.008794,-0.999515,0.182585,-0.000392,-0.005612,-0.001027,-0.000332,0.004260,0.000000,0.000000,-1.000000,-1.000000,-1.000000
482149026.499339,0.165344,-0.006821,-1.006042,0.029835,0.008746,0.004232,0.999545,0.004491,-0.029829,-0.004232,0.999953,0.008746,0.029867,-0.008616,0.999517,0.029829,-0.008746,-0.999517,0.072664,0.005725,-0.043376,-0.000490,-0.000417,-0.005111,23.158413,27.621197,-1.000000,-1.000000,-1.000000
482149026.509421,0.165344,-0.006821,-1.006042,0.029853,0.008772,0.004234,0.999544,0.004494,-0.029848,-0.004234,0.999953,0.008772,0.029886,-0.008642,0.999516,0.029848,-0.008772,-0.999516,0.121565,0.011763,0.001271,0.000382,0.002018,0.000777,23.158413,27.621197,-1.000000,-1.000000,-1.000000
482149026.519150,0.078720,-0.001083,-1.020050,0.029868,0.008747,0.004210,0.999544,0.004469,-0.029863,-0.004210,0.999953,0.008747,0.029900,-0.008618,0.999516,0.029863,-0.008747,-0.999516,0.119948,0.009464,-0.025036,0.001457,-0.001547,0.003230,23.158413,27.621197,-1.000000,-1.000000,-1.000000
482149026.529317,0.034897,-0.005676,-1.029419,0.029868,0.008747,0.004210,0.999544,0.004469,-0.029863,-0.004210,0.999953,0.008747,0.029900,-0.008618,0.999516,0.029863,-0.008747,-0.999516,0.119948,0.009464,-0.025036,0.001457,-0.001547,0.003230,23.158413,27.621197,-1.000000,-1.000000,-1.000000
482149026.539279,-0.001862,-0.003860,-1.003479,0.029914,0.008812,0.004234,0.999543,0.004496,-0.029908,-0.004234,0.999952,0.008812,0.029946,-0.008681,0.999514,0.029908,-0.008812,-0.999514,0.135436,0.001991,-0.006529,0.005011,0.005610,0.004494,23.158413,27.621197,-1.000000,-1.000000,-1.000000
482149026.549219,-0.079285,0.004684,-1.041245,0.029940,0.008796,0.004269,0.999542,0.004531,-0.029934,-0.004269,0.999952,0.008796,0.029973,-0.008664,0.999513,0.029934,-0.008796,-0.999513,0.004962,0.003120,-0.029906,0.000583,0.001986,-0.002737,23.167274,27.630058,-1.000000,-1.000000,-1.000000
482149026.559858,-0.067596,-0.010849,-1.027710,0.029986,0.008755,0.004286,0.999540,0.004546,-0.029980,-0.004286,0.999952,0.008755,0.030019,-0.008623,0.999512,0.029980,-0.008755,-0.999512,-0.031842,0.004895,-0.003967,-0.004584,0.005640,0.002820,23.167274,27.630058,-1.000000,-1.000000,-1.000000
482149026.569233,-0.014313,-0.009262,-1.030380,0.029986,0.008755,0.004286,0.999540,0.004546,-0.029980,-0.004286,0.999952,0.008755,0.030019,-0.008623,0.999512,0.029980,-0.008755,-0.999512,-0.031842,0.004895,-0.003967,-0.004584,0.005640,0.002820,23.167274,27.630058,-1.000000,-1.000000,-1.000000
482149026.579070,0.026794,-0.012680,-1.028824,0.030061,0.008764,0.004272,0.999538,0.004534,-0.030056,-0.004272,0.999952,0.008763,0.030094,-0.008631,0.999510,0.030056,-0.008763,-0.999510,-0.109340,0.013448,-0.041735,-0.002035,0.003221,0.000635,23.167274,27.630058,-1.000000,-1.000000,-1.000000
482149026.589220,-0.059219,0.000275,-1.013748,0.030047,0.008761,0.004296,0.999538,0.004557,-0.030041,-0.004296,0.999952,0.008761,0.030080,-0.008628,0.999510,0.030041,-0.008761,-0.999510,-0.097638,-0.002088,-0.028200,0.002599,-0.005122,0.004512,23.167274,27.630058,-1.000000,-1.000000,-1.000000
482149026.599427,-0.095352,-0.008179,-1.022629,0.030047,0.008761,0.004296,0.999538,0.004557,-0.030041,-0.004296,0.999952,0.008761,0.030080,-0.008628,0.999510,0.030041,-0.008761,-0.999510,-0.097638,-0.002088,-0.028200,0.002599,-0.005122,0.004512,23.179619,27.642403,-1.000000,-1.000000,-1.000000
482149026.609195,-0.091400,0.000610,-1.037064,0.030057,0.008762,0.004364,0.999538,0.004625,-0.030051,-0.004364,0.999952,0.008762,0.030090,-0.008626,0.999510,0.030051,-0.008762,-0.999510,-0.003257,-0.003918,-0.029314,-0.002235,0.000866,0.004181,23.179619,27.642403,-1.000000,-1.000000,-1.000000
482149026.618785,-0.091400,0.000610,-1.037064,0.030086,0.008765,0.004371,0.999537,0.004633,-0.030080,-0.004371,0.999952,0.008765,0.030120,-0.008630,0.999509,0.030080,-0.008765,-0.999509,-0.089300,0.009040,-0.014239,0.001656,0.002002,-0.000332,23.179619,27.642403,-1.000000,-1.000000,-1.000000
482149026.629216,0.050903,-0.010513,-1.037125,0.030063,0.008768,0.004380,0.999537,0.004642,-0.030057,-0.004380,0.999952,0.008767,0.030096,-0.008632,0.999510,0.030057,-0.008767,-0.999510,-0.125409,0.000589,-0.023119,0.001925,0.000766,-0.005001,23.179619,27.642403,-1.000000,-1.000000,-1.000000
482149026.639110,0.137558,-0.002518,-1.035934,0.030063,0.008768,0.004380,0.999537,0.004642,-0.030057,-0.004380,0.999952,0.008767,0.030096,-0.008632,0.999510,0.030057,-0.008767,-0.999510,-0.125409,0.000589,-0.023119,0.001925,0.000766,-0.005001,23.179619,27.642403,-1.000000,-1.000000,-1.000000
482149026.649196,0.152145,-0.008881,-0.999023,0.030081,0.008778,0.004339,0.999537,0.004601,-0.030075,-0.004339,0.999952,0.008778,0.030114,-0.008643,0.999509,0.030075,-0.008778,-0.999509,-0.121476,0.009388,-0.037555,0.000784,0.001954,-0.006251,23.187279,27.650063,-1.000000,-1.000000,-1.000000
482149026.659292,0.183289,-0.009598,-1.011734,0.030107,0.008797,0.004353,0.999536,0.004616,-0.030101,-0.004353,0.999952,0.008797,0.030141,-0.008661,0.999508,0.030101,-0.008797,-0.999508,0.107457,0.006279,-0.036426,0.001724,-0.000396,-0.001471,23.187279,27.650063,-1.000000,-1.000000,-1.000000
482149026.669053,0.049759,-0.010681,-1.052734,0.030107,0.008797,0.004353,0.999536,0.004616,-0.030101,-0.004353,0.999952,0.008797,0.030141,-0.008661,0.999508,0.030101,-0.008797,-0.999508,0.107457,0.006279,-0.036426,0.001724,-0.000396,-0.001471,23.187279,27.650063,-1.000000,-1.000000,-1.000000
482149026.679144,0.043564,-0.017273,-1.013199,0.030120,0.008794,0.004377,0.999536,0.004639,-0.030114,-0.004376,0.999952,0.008794,0.030154,-0.008658,0.999508,0.030114,-0.008794,-0.999508,0.122031,-0.000086,0.000484,0.002864,0.001997,-0.000269,23.187279,27.650063,-1.000000,-1.000000,-1.000000
482149026.689173,0.086258,-0.011047,-1.036957,0.030113,0.008790,0.004412,0.999536,0.004675,-0.030108,-0.004412,0.999952,0.008790,0.030147,-0.008653,0.999508,0.030108,-0.008790,-0.999508,0.153181,-0.000808,-0.012226,0.000315,-0.000359,0.001980,23.187279,27.650063,-1.000000,-1.000000,-1.000000
482149026.699112,0.127640,-0.008591,-1.037415,0.030126,0.008788,0.004419,0.999535,0.004682,-0.030121,-0.004419,0.999952,0.008788,0.030160,-0.008651,0.999508,0.030121,-0.008788,-0.999508,0.019638,-0.001893,-0.053227,-0.001900,0.002007,-0.001691,23.187279,27.650063,-1.000000,-1.000000,-1.000000
482149026.709388,0.113388,-0.009476,-1.010101,0.030126,0.008788,0.004419,0.999535,0.004682,-0.030121,-0.004419,0.999952,0.008788,0.030160,-0.008651,0.999508,0.030121,-0.008788,-0.999508,0.019638,-0.001893,-0.053227,-0.001900,0.002007,-0.001691,23.190384,27.653168,-1.000000,-1.000000,-1.000000
482149026.719423,0.046860,0.001389,-1.029755,0.030169,0.008784,0.004455,0.999534,0.004718,-0.030163,-0.004455,0.999951,0.008784,0.030203,-0.008645,0.999506,0.030163,-0.008784,-0.999506,0.056095,-0.002263,-0.037450,0.000113,0.004447,0.005430,23.190384,27.653168,-1.000000,-1.000000,-1.000000
482149026.729261,0.046860,0.001389,-1.029755,0.030143,0.008766,0.004462,0.999535,0.004724,-0.030138,-0.004462,0.999952,0.008765,0.030178,-0.008627,0.999507,0.030138,-0.008765,-0.999507,0.097502,0.000175,-0.037907,-0.000691,-0.003966,-0.001549,23.190384,27.653168,-1.000000,-1.000000,-1.000000
482149026.739169,-0.001434,-0.012070,-1.033463,0.030120,0.008758,0.004617,0.999535,0.004878,-0.030114,-0.004616,0.999951,0.008758,0.030156,-0.008615,0.999508,0.030114,-0.008758,-0.999508,0.083274,-0.000718,-0.010593,-0.000087,0.000897,0.008992,23.190384,27.653168,-1.000000,-1.000000,-1.000000
482149026.749136,-0.079193,-0.002090,-1.027557,0.030120,0.008758,0.004617,0.999535,0.004878,-0.030114,-0.004616,0.999951,0.008758,0.030156,-0.008615,0.999508,0.030114,-0.008758,-0.999508,0.083274,-0.000718,-0.010593,-0.000087,0.000897,0.008992,23.190384,27.653168,-1.000000,-1.000000,-1.000000
482149026.759202,-0.091934,-0.010223,-1.032104,0.030122,0.008800,0.004636,0.999534,0.004898,-0.030116,-0.004635,0.999951,0.008800,0.030158,-0.008657,0.999508,0.030116,-0.008800,-0.999508,0.016743,0.010189,-0.030247,0.003871,-0.000364,0.003339,23.199209,27.661995,-1.000000,-1.000000,-1.000000
482149026.769185,0.024567,-0.007675,-1.021271,0.030050,0.008740,0.004709,0.999536,0.004969,-0.030044,-0.004709,0.999951,0.008740,0.030086,-0.008594,0.999510,0.030044,-0.008740,-0.999510,-0.109237,0.006649,-0.028047,-0.009414,-0.003889,0.002696,23.199209,27.661995,-1.000000,-1.000000,-1.000000
482149026.779105,0.018982,-0.010803,-1.028351,0.030050,0.008740,0.004709,0.999536,0.004969,-0.030044,-0.004709,0.999951,0.008740,0.030086,-0.008594,0.999510,0.030044,-0.008740,-0.999510,-0.109237,0.006649,-0.028047,-0.009414,-0.003889,0.002696,23.199209,27.661995,-1.000000,-1.000000,-1.000000
482149026.788758,-0.075684,-0.012100,-1.042770,0.030079,0.008747,0.004781,0.999535,0.005041,-0.030073,-0.004780,0.999950,0.008747,0.030116,-0.008599,0.999509,0.030073,-0.008747,-0.999509,-0.122008,-0.001476,-0.032595,0.004810,0.003254,0.008039,23.199209,27.661995,-1.000000,-1.000000,-1.000000
482149026.799160,-0.080841,-0.007950,-1.017868,0.030116,0.008725,0.004859,0.999533,0.005119,-0.030110,-0.004858,0.999950,0.008725,0.030154,-0.008575,0.999509,0.030110,-0.008725,-0.999509,-0.005544,0.001050,-0.021762,0.001657,-0.000386,-0.000300,23.199209,27.661995,-1.000000,-1.000000,-1.000000
482149026.809209,-0.059372,-0.003876,-1.031204,0.030124,0.008657,0.004843,0.999533,0.005101,-0.030118,-0.004842,0.999951,0.008657,0.030161,-0.008507,0.999509,0.030118,-0.008657,-0.999509,-0.011136,-0.002146,-0.028842,-0.006597,-0.000381,-0.004254,23.209761,27.672546,-1.000000,-1.000000,-1.000000
482149026.819189,0.024811,-0.010712,-1.027039,0.030124,0.008657,0.004843,0.999533,0.005101,-0.030118,-0.004842,0.999951,0.008657,0.030161,-0.008507,0.999509,0.030118,-0.008657,-0.999509,-0.011136,-0.002146,-0.028842,-0.006597,-0.000381,-0.004254,23.209761,27.672546,-1.000000,-1.000000,-1.000000
482149026.828338,0.024811,-0.010712,-1.027039,0.030123,0.008637,0.004867,0.999533,0.005125,-0.030117,-0.004867,0.999951,0.008636,0.030160,-0.008486,0.999509,0.030117,-0.008636,-0.999509,-0.110958,0.000687,-0.018359,-0.002236,0.002059,0.004165,23.209761,27.672546,-1.000000,-1.000000,-1.000000
482149026.838559,0.090866,-0.003983,-1.028030,0.030174,0.008634,0.004895,0.999532,0.005154,-0.030168,-0.004895,0.999951,0.008634,0.030211,-0.008482,0.999508,0.030168,-0.008634,-0.999508,-0.089540,0.004758,-0.031697,0.001454,0.005614,0.003134,23.209761,27.672546,-1.000000,-1.000000,-1.000000
482149026.849257,0.186142,-0.004807,-1.026184,0.030200,0.008680,0.004937,0.999531,0.005197,-0.030194,-0.004937,0.999950,0.008680,0.030238,-0.008526,0.999506,0.030194,-0.008680,-0.999506,-0.005383,-0.002032,-0.027532,-0.002102,0.003232,0.001806,23.209761,27.672546,-1.000000,-1.000000,-1.000000
482149026.859066,0.207108,-0.004410,-1.013290,0.030200,0.008680,0.004937,0.999531,0.005197,-0.030194,-0.004937,0.999950,0.008680,0.030238,-0.008526,0.999506,0.030194,-0.008680,-0.999506,-0.005383,-0.002032,-0.027532,-0.002102,0.003232,0.001806,23.217020,27.679806,-1.000000,-1.000000,-1.000000
482149026.869182,0.079025,-0.001129,-1.025848,0.030235,0.008644,0.004954,0.999529,0.005213,-0.030229,-0.004954,0.999950,0.008644,0.030273,-0.008490,0.999506,0.030229,-0.008644,-0.999506,0.060637,0.004662,-0.028525,-0.003377,0.004441,0.002899,23.217020,27.679806,-1.000000,-1.000000,-1.000000
482149026.879174,0.051071,-0.003189,-1.000320,0.030228,0.008651,0.004990,0.999529,0.005250,-0.030222,-0.004990,0.999950,0.008651,0.030266,-0.008496,0.999506,0.030222,-0.008651,-0.999506,0.176885,0.004241,-0.013785,0.006488,-0.000406,-0.000049,23.217020,27.679806,-1.000000,-1.000000,-1.000000
482149026.889180,0.132706,-0.006363,-1.020645,0.030228,0.008651,0.004990,0.999529,0.005250,-0.030222,-0.004990,0.999950,0.008651,0.030266,-0.008496,0.999506,0.030222,-0.008651,-0.999506,0.176885,0.004241,-0.013785,0.006488,-0.000406,-0.000049,23.217020,27.679806,-1.000000,-1.000000,-1.000000
482149026.899167,0.132141,-0.004486,-1.027496,0.030236,0.008633,0.004981,0.999529,0.005240,-0.030230,-0.004981,0.999950,0.008633,0.030274,-0.008478,0.999506,0.030230,-0.008633,-0.999506,0.048795,0.007504,-0.026343,-0.001967,0.000823,-0.000504,23.217020,27.679806,-1.000000,-1.000000,-1.000000
482149026.909192,0.162964,-0.015701,-1.002182,0.030234,0.008646,0.005001,0.999529,0.005260,-0.030228,-0.005001,0.999950,0.008646,0.030272,-0.008491,0.999506,0.030228,-0.008646,-0.999506,0.020843,0.005457,-0.000815,-0.000961,0.002044,0.003056,23.219402,27.682186,-1.000000,-1.000000,-1.000000
482149026.919433,0.071625,-0.002319,-1.035034,0.030237,0.008588,0.005018,0.999529,0.005275,-0.030231,-0.005017,0.999951,0.008588,0.030275,-0.008432,0.999506,0.030231,-0.008588,-0.999506,0.102475,0.002225,-0.021139,-0.009348,-0.000318,0.001477,23.219402,27.682186,-1.000000,-1.000000,-1.000000
482149026.929327,0.034027,-0.005310,-0.994492,0.030237,0.008588,0.005018,0.999529,0.005275,-0.030231,-0.005017,0.999951,0.008588,0.030275,-0.008432,0.999506,0.030231,-0.008588,-0.999506,0.102475,0.002225,-0.021139,-0.009348,-0.000318,0.001477,23.219402,27.682186,-1.000000,-1.000000,-1.000000
482149026.939119,-0.067993,0.006714,-1.049332,0.030191,0.008607,0.005044,0.999530,0.005301,-0.030185,-0.005044,0.999950,0.008606,0.030230,-0.008450,0.999507,0.030185,-0.008606,-0.999507,0.132778,-0.007095,-0.002675,-0.002167,-0.003919,0.003073,23.219402,27.682186,-1.000000,-1.000000,-1.000000
482149026.948851,-0.067993,0.006714,-1.049332,0.030215,0.008626,0.005078,0.999529,0.005336,-0.030209,-0.005078,0.999950,0.008626,0.030254,-0.008469,0.999506,0.030209,-0.008626,-0.999506,0.041415,0.006307,-0.035528,0.002662,0.003222,0.003228,23.219402,27.682186,-1.000000,-1.000000,-1.000000
482149026.959139,-0.032639,-0.013321,-1.020737,0.030175,0.008689,0.005100,0.999530,0.005360,-0.030169,-0.005100,0.999949,0.008689,0.030214,-0.008531,0.999507,0.030169,-0.008689,-0.999507,0.003858,0.003379,0.005015,-0.000893,-0.001548,0.001933,23.219402,27.682186,-1.000000,-1.000000,-1.000000
482149026.969212,-0.067154,-0.000992,-1.031723,0.030175,0.008689,0.005100,0.999530,0.005360,-0.030169,-0.005100,0.999949,0.008689,0.030214,-0.008531,0.999507,0.030169,-0.008689,-0.999507,0.003858,0.003379,0.005015,-0.000893,-0.001548,0.001933,23.225904,27.688690,-1.000000,-1.000000,-1.000000
482149026.978589,0.008667,-0.016785,-1.022095,0.030160,0.008737,0.005119,0.999531,0.005380,-0.030155,-0.005119,0.999949,0.008737,0.030200,-0.008578,0.999507,0.030155,-0.008737,-0.999507,-0.098148,0.015451,-0.049825,0.006355,-0.003966,0.002342,23.225904,27.688690,-1.000000,-1.000000,-1.000000
482149026.989176,-0.057541,0.001144,-1.026306,0.030170,0.008788,0.005151,0.999530,0.005413,-0.030164,-0.005150,0.999948,0.008788,0.030210,-0.008629,0.999506,0.030164,-0.008788,-0.999506,-0.097318,0.007797,-0.032217,0.008635,-0.001568,0.004778,23.225904,27.688690,-1.000000,-1.000000,-1.000000
482149026.999253,-0.118011,-0.005447,-1.020142,0.030170,0.008788,0.005151,0.999530,0.005413,-0.030164,-0.005150,0.999948,0.008788,0.030210,-0.008629,0.999506,0.030164,-0.008788,-0.999506,-0.097318,0.007797,-0.032217,0.008635,-0.001568,0.004778,23.225904,27.688690,-1.000000,-1.000000,-1.000000
482149027.009167,-0.077423,-0.003220,-1.042984,0.030188,0.008836,0.005191,0.999530,0.005455,-0.030182,-0.005191,0.999947,0.008836,0.030229,-0.008675,0.999505,0.030182,-0.008836,-0.999505,-0.021515,-0.007949,-0.022589,0.004876,0.004437,0.006852,23.225904,27.688690,-1.000000,-1.000000,-1.000000
482149027.019193,-0.071457,-0.006927,-1.027023,0.030192,0.008892,0.005250,0.999529,0.005516,-0.030186,-0.005249,0.999947,0.008892,0.030233,-0.008729,0.999505,0.030186,-0.008892,-0.999505,-0.087727,0.010036,-0.026801,0.002864,-0.000391,-0.000238,23.234293,27.697079,-1.000000,-1.000000,-1.000000
482149027.029176,0.045471,-0.004517,-1.024918,0.030188,0.008873,0.005262,0.999529,0.005527,-0.030183,-0.005262,0.999947,0.008873,0.030230,-0.008710,0.999505,0.030183,-0.008873,-0.999505,-0.148194,0.003426,-0.020637,0.001523,-0.003945,0.002090,23.234293,27.697079,-1.000000,-1.000000,-1.000000
482149027.039055,0.155182,-0.005280,-1.035797,0.030188,0.008873,0.005262,0.999529,0.005527,-0.030183,-0.005262,0.999947,0.008873,0.030230,-0.008710,0.999505,0.030183,-0.008873,-0.999505,-0.148194,0.003426,-0.020637,0.001523,-0.003945,0.002090,23.234293,27.697079,-1.000000,-1.000000,-1.000000
482149027.048204,0.155182,-0.005280,-1.035797,0.030160,0.008874,0.005341,0.999530,0.005606,-0.030154,-0.005341,0.999946,0.008873,0.030202,-0.008708,0.999506,0.030154,-0.008873,-0.999506,-0.101611,0.001946,-0.027517,-0.001096,0.003258,0.005383,23.234293,27.697079,-1.000000,-1.000000,-1.000000
482149027.058756,0.179504,-0.005722,-1.012970,0.030151,0.008878,0.005333,0.999530,0.005598,-0.030145,-0.005332,0.999946,0.008878,0.030193,-0.008713,0.999506,0.030145,-0.008878,-0.999506,0.015326,0.004361,-0.025411,0.003065,-0.000422,-0.003751,23.234293,27.697079,-1.000000,-1.000000,-1.000000
482149027.069217,0.045853,-0.010345,-1.016068,0.030144,0.008897,0.005331,0.999530,0.005597,-0.030138,-0.005331,0.999946,0.008897,0.030186,-0.008732,0.999506,0.030138,-0.008897,-0.999506,0.125044,0.003617,-0.036291,0.002997,0.001975,-0.002612,23.235697,27.698483,-1.000000,-1.000000,-1.000000
482149027.078689,0.082718,-0.010208,-1.043961,0.030144,0.008897,0.005331,0.999530,0.005597,-0.030138,-0.005331,0.999946,0.008897,0.030186,-0.008732,0.999506,0.030138,-0.008897,-0.999506,0.125044,0.003617,-0.036291,0.002997,0.001975,-0.002612,23.235697,27.698483,-1.000000,-1.000000,-1.000000
482149027.089238,0.148056,-0.005325,-1.031372,0.030140,0.008884,0.005338,0.999530,0.005603,-0.030134,-0.005338,0.999946,0.008884,0.030183,-0.008719,0.999506,0.030134,-0.008884,-0.999506,0.149370,0.003162,-0.013464,0.001523,-0.002752,0.002074,23.235697,27.698483,-1.000000,-1.000000,-1.000000
482149027.099196,0.148697,-0.006027,-1.007050,0.030166,0.008947,0.005354,0.999529,0.005621,-0.030160,-0.005353,0.999946,0.008947,0.030209,-0.008781,0.999505,0.030160,-0.008947,-0.999505,0.052558,-0.001261,-0.044456,0.005681,-0.000464,-0.007140,23.235697,27.698483,-1.000000,-1.000000,-1.000000
482149027.109106,0.158401,-0.009064,-1.023911,0.030166,0.008947,0.005354,0.999529,0.005621,-0.030160,-0.005353,0.999946,0.008947,0.030209,-0.008781,0.999505,0.030160,-0.008947,-0.999505,0.052558,-0.001261,-0.044456,0.005681,-0.000464,-0.007140,23.235697,27.698483,-1.000000,-1.000000,-1.000000
482149027.119193,0.109467,-0.002762,-1.025955,0.030146,0.008950,0.005372,0.999530,0.005639,-0.030140,-0.005372,0.999946,0.008950,0.030189,-0.008784,0.999506,0.030140,-0.008950,-0.999506,0.117916,0.003625,-0.031866,-0.005927,0.002085,0.005147,23.235075,27.697861,-1.000000,-1.000000,-1.000000
482149027.129174,0.054382,-0.013168,-1.011642,0.030172,0.008930,0.005369,0.999529,0.005636,-0.030166,-0.005369,0.999946,0.008930,0.030215,-0.008764,0.999505,0.030166,-0.008930,-0.999505,0.118531,0.002903,-0.007545,0.000247,-0.000349,0.003151,23.235075,27.697861,-1.000000,-1.000000,-1.000000
482149027.139171,-0.024078,-0.003616,-1.047546,0.030136,0.008923,0.005377,0.999530,0.005643,-0.030130,-0.005377,0.999946,0.008923,0.030179,-0.008757,0.999506,0.030130,-0.008923,-0.999506,0.128271,-0.000141,-0.024404,-0.002167,-0.007500,0.003121,23.235075,27.697861,-1.000000,-1.000000,-1.000000
482149027.149279,-0.092728,-0.013214,-1.036972,0.030136,0.008923,0.005377,0.999530,0.005643,-0.030130,-0.005377,0.999946,0.008923,0.030179,-0.008757,0.999506,0.030130,-0.008923,-0.999506,0.128271,-0.000141,-0.024404,-0.002167,-0.007500,0.003121,23.235075,27.697861,-1.000000,-1.000000,-1.000000
482149027.159168,-0.129272,-0.005692,-1.030518,0.030123,0.008913,0.005418,0.999530,0.005684,-0.030118,-0.005418,0.999946,0.008913,0.030167,-0.008745,0.999507,0.030118,-0.008913,-0.999507,0.024265,-0.004255,-0.012136,-0.004450,-0.001543,0.000573,23.235075,27.697861,-1.000000,-1.000000,-1.000000
482149027.168623,-0.129272,-0.005692,-1.030518,0.030169,0.008934,0.005409,0.999529,0.005676,-0.030164,-0.005409,0.999945,0.008934,0.030213,-0.008766,0.999505,0.030164,-0.008934,-0.999505,-0.054242,0.005317,-0.048041,0.004136,0.006755,-0.001441,23.238297,27.701080,-1.000000,-1.000000,-1.000000
482149027.179289,0.016830,-0.003830,-1.021790,0.030162,0.009029,0.005453,0.999529,0.005722,-0.030156,-0.005452,0.999944,0.009029,0.030206,-0.008861,0.999504,0.030156,-0.009029,-0.999504,-0.122884,-0.004185,-0.037468,0.007293,-0.001542,0.007057,23.238297,27.701080,-1.000000,-1.000000,-1.000000
482149027.189313,0.024353,-0.001678,-1.014557,0.030162,0.009029,0.005453,0.999529,0.005722,-0.030156,-0.005452,0.999944,0.009029,0.030206,-0.008861,0.999504,0.030156,-0.009029,-0.999504,-0.122884,-0.004185,-0.037468,0.007293,-0.001542,0.007057,23.238297,27.701080,-1.000000,-1.000000,-1.000000
482149027.199111,-0.108017,0.002777,-1.001190,0.030142,0.009067,0.005439,0.999529,0.005710,-0.030136,-0.005439,0.999944,0.009067,0.030186,-0.008899,0.999505,0.030136,-0.009067,-0.999505,-0.159409,0.003375,-0.031013,0.003064,-0.000422,-0.003751,23.238297,27.701080,-1.000000,-1.000000,-1.000000
482149027.208813,-0.145798,-0.003952,-1.033463,0.030151,0.009070,0.005394,0.999529,0.005665,-0.030146,-0.005394,0.999944,0.009070,0.030195,-0.008904,0.999504,0.030146,-0.009070,-0.999504,-0.005793,0.007392,-0.015053,0.000850,-0.002831,-0.007359,23.238297,27.701080,-1.000000,-1.000000,-1.000000
482149027.219469,0.005417,-0.003860,-1.010818,0.030151,0.009070,0.005394,0.999529,0.005665,-0.030146,-0.005394,0.999944,0.009070,0.030195,-0.008904,0.999504,0.030146,-0.009070,-0.999504,-0.005793,0.007392,-0.015053,0.000850,-0.002831,-0.007359,23.238297,27.701080,-1.000000,-1.000000,-1.000000
482149027.229256,0.098587,-0.004868,-1.025604,0.030148,0.009068,0.005412,0.999529,0.005683,-0.030142,-0.005412,0.999944,0.009068,0.030192,-0.008901,0.999505,0.030142,-0.009068,-0.999505,-0.138159,0.011845,-0.001686,-0.003377,0.000860,0.002946,23.245207,27.707993,-1.000000,-1.000000,-1.000000
482149027.239177,0.190079,-0.005753,-1.026932,0.030174,0.009096,0.005492,0.999528,0.005763,-0.030168,-0.005491,0.999944,0.009096,0.030219,-0.008926,0.999503,0.030168,-0.009096,-0.999503,-0.175966,0.005144,-0.033959,-0.002102,0.000844,0.001838,23.245207,27.707993,-1.000000,-1.000000,-1.000000
482149027.249176,0.209381,-0.006042,-0.983017,0.030148,0.009127,0.005521,0.999529,0.005794,-0.030143,-0.005521,0.999943,0.009127,0.030194,-0.008956,0.999504,0.030143,-0.009127,-0.999504,-0.024726,0.005267,-0.011315,0.002596,-0.003930,0.004495,23.245207,27.707993,-1.000000,-1.000000,-1.000000
482149027.258742,0.080139,-0.003937,-1.011185,0.030148,0.009127,0.005521,0.999529,0.005794,-0.030143,-0.005521,0.999943,0.009127,0.030194,-0.008956,0.999504,0.030143,-0.009127,-0.999504,-0.024726,0.005267,-0.011315,0.002596,-0.003930,0.004495,23.245207,27.707993,-1.000000,-1.000000,-1.000000
482149027.269819,0.036102,-0.000732,-1.031357,0.030131,0.009117,0.005568,0.999529,0.005840,-0.030125,-0.005568,0.999943,0.009117,0.030176,-0.008945,0.999505,0.030125,-0.009117,-0.999505,0.159954,0.003364,-0.027427,-0.000895,0.002033,0.001885,23.245207,27.707993,-1.000000,-1.000000,-1.000000
482149027.279235,0.036102,-0.000732,-1.031357,0.030149,0.009116,0.005543,0.999529,0.005815,-0.030143,-0.005542,0.999943,0.009116,0.030194,-0.008945,0.999504,0.030143,-0.009116,-0.999504,0.179238,0.003074,0.016487,-0.003110,0.003205,-0.001770,23.246664,27.709450,-1.000000,-1.000000,-1.000000
482149027.289263,0.117020,-0.008179,-0.985596,0.030151,0.009103,0.005539,0.999529,0.005811,-0.030145,-0.005539,0.999943,0.009103,0.030196,-0.008932,0.999504,0.030145,-0.009103,-0.999504,0.049994,0.005167,-0.011681,0.000447,-0.000381,-0.000363,23.246664,27.709450,-1.000000,-1.000000,-1.000000
482149027.299193,0.129471,-0.005554,-1.033447,0.030136,0.009157,0.005542,0.999529,0.005815,-0.030131,-0.005542,0.999943,0.009157,0.030182,-0.008986,0.999504,0.030131,-0.009157,-0.999504,0.050009,0.005220,-0.011681,0.011185,-0.001599,0.002561,23.246664,27.709450,-1.000000,-1.000000,-1.000000
482149027.308929,0.165588,-0.014008,-1.032166,0.030117,0.009150,0.005544,0.999530,0.005817,-0.030111,-0.005544,0.999943,0.009150,0.030162,-0.008979,0.999505,0.030111,-0.009150,-0.999505,0.005992,0.008418,-0.031852,-0.000625,-0.005171,-0.002705,23.246664,27.709450,-1.000000,-1.000000,-1.000000
482149027.319403,0.093903,-0.003784,-1.011353,0.030132,0.009129,0.005568,0.999529,0.005841,-0.030126,-0.005568,0.999943,0.009129,0.030177,-0.008957,0.999504,0.030126,-0.009129,-0.999504,0.099345,0.003575,-0.033943,-0.005727,0.003246,0.001618,23.246664,27.709450,-1.000000,-1.000000,-1.000000
482149027.329122,0.081451,-0.001190,-1.034454,0.030132,0.009129,0.005568,0.999529,0.005841,-0.030126,-0.005568,0.999943,0.009129,0.030177,-0.008957,0.999504,0.030126,-0.009129,-0.999504,0.099345,0.003575,-0.033943,-0.005727,0.003246,0.001618,23.245392,27.708176,-1.000000,-1.000000,-1.000000
482149027.339176,0.039902,-0.011581,-1.033890,0.030128,0.009144,0.005587,0.999529,0.005860,-0.030122,-0.005586,0.999943,0.009144,0.030174,-0.008971,0.999504,0.030122,-0.009144,-0.999504,0.135466,-0.004864,-0.032661,0.000046,-0.001511,0.006681,23.245392,27.708176,-1.000000,-1.000000,-1.000000
482149027.349174,-0.054657,-0.000763,-1.026108,0.030127,0.009133,0.005660,0.999529,0.005933,-0.030121,-0.005660,0.999942,0.009133,0.030173,-0.008958,0.999505,0.030121,-0.009133,-0.999505,0.063782,0.005349,-0.011848,-0.002037,0.005608,0.000603,23.245392,27.708176,-1.000000,-1.000000,-1.000000
482149027.359168,-0.114777,0.000290,-1.041367,0.030140,0.009121,0.005629,0.999528,0.005901,-0.030134,-0.005629,0.999943,0.009121,0.030186,-0.008947,0.999504,0.030134,-0.009121,-0.999504,0.051317,0.007931,-0.034950,-0.005458,-0.001570,-0.003004,23.245392,27.708176,-1.000000,-1.000000,-1.000000
482149027.369258,0.026810,-0.013489,-1.010376,0.030140,0.009121,0.005629,0.999528,0.005901,-0.030134,-0.005629,0.999943,0.009121,0.030186,-0.008947,0.999504,0.030134,-0.009121,-0.999504,0.051317,0.007931,-0.034950,-0.005458,-0.001570,-0.003004,23.245392,27.708176,-1.000000,-1.000000,-1.000000
482149027.378971,0.026810,-0.013489,-1.010376,0.030144,0.009151,0.005650,0.999528,0.005923,-0.030138,-0.005649,0.999942,0.009151,0.030190,-0.008976,0.999504,0.030138,-0.009151,-0.999504,-0.084795,0.008388,-0.026604,0.006352,0.002002,0.002262,23.250572,27.713356,-1.000000,-1.000000,-1.000000
482149027.388692,-0.056488,-0.011978,-1.052292,0.030168,0.009159,0.005689,0.999527,0.005963,-0.030162,-0.005689,0.999942,0.009159,0.030215,-0.008983,0.999503,0.030162,-0.009159,-0.999503,-0.144938,0.009449,-0.041864,0.003936,0.002012,0.002136,23.250572,27.713356,-1.000000,-1.000000,-1.000000
482149027.399146,-0.122452,-0.015549,-1.033859,0.030168,0.009159,0.005689,0.999527,0.005963,-0.030162,-0.005689,0.999942,0.009159,0.030215,-0.008983,0.999503,0.030162,-0.009159,-0.999503,-0.144938,0.009449,-0.041864,0.003936,0.002012,0.002136,23.250572,27.713356,-1.000000,-1.000000,-1.000000
482149027.409241,-0.099686,-0.006348,-1.032623,0.030155,0.009178,0.005709,0.999528,0.005983,-0.030149,-0.005709,0.999942,0.009177,0.030203,-0.009001,0.999503,0.030149,-0.009177,-0.999503,-0.003340,-0.004311,-0.010873,-0.004318,0.000822,-0.001801,23.250572,27.713356,-1.000000,-1.000000,-1.000000
482149027.419163,-0.039047,-0.003738,-1.043564,0.030141,0.009193,0.005701,0.999528,0.005975,-0.030135,-0.005701,0.999941,0.009193,0.030188,-0.009017,0.999504,0.030135,-0.009193,-0.999504,-0.086623,-0.002786,-0.052788,0.004138,-0.001600,-0.001330,23.250572,27.713356,-1.000000,-1.000000,-1.000000
482149027.429185,0.076126,-0.009949,-1.012329,0.030128,0.009223,0.005711,0.999528,0.005986,-0.030122,-0.005710,0.999941,0.009222,0.030176,-0.009046,0.999504,0.030122,-0.009222,-0.999504,-0.129808,0.002875,-0.033120,-0.001901,-0.003962,-0.001612,23.256765,27.719551,-1.000000,-1.000000,-1.000000
482149027.439185,0.146561,0.001541,-1.037399,0.030128,0.009223,0.005711,0.999528,0.005986,-0.030122,-0.005710,0.999941,0.009222,0.030176,-0.009046,0.999504,0.030122,-0.009222,-0.999504,-0.129808,0.002875,-0.033120,-0.001901,-0.003962,-0.001612,23.256765,27.719551,-1.000000,-1.000000,-1.000000
482149027.449171,0.198395,-0.008316,-0.999191,0.030119,0.009199,0.005707,0.999529,0.005981,-0.030114,-0.005706,0.999941,0.009199,0.030167,-0.009022,0.999504,0.030114,-0.009199,-0.999504,-0.069161,0.005460,-0.044060,-0.001901,-0.003962,-0.001612,23.256765,27.719551,-1.000000,-1.000000,-1.000000
482149027.459173,0.180817,-0.004791,-1.018738,0.030052,0.009229,0.005723,0.999530,0.005997,-0.030046,-0.005722,0.999941,0.009228,0.030100,-0.009052,0.999506,0.030046,-0.009228,-0.999506,0.046080,-0.000720,-0.012823,0.010244,-0.000443,-0.002203,23.256765,27.719551,-1.000000,-1.000000,-1.000000
482149027.469262,0.047318,-0.009430,-1.024750,0.030060,0.009221,0.005719,0.999530,0.005993,-0.030054,-0.005718,0.999941,0.009221,0.030107,-0.009045,0.999506,0.030054,-0.009221,-0.999506,0.116507,0.010762,-0.037894,-0.006733,-0.001554,-0.001895,23.256765,27.719551,-1.000000,-1.000000,-1.000000
482149027.479147,0.059036,-0.008484,-1.041534,0.030060,0.009221,0.005719,0.999530,0.005993,-0.030054,-0.005718,0.999941,0.009221,0.030107,-0.009045,0.999506,0.030054,-0.009221,-0.999506,0.116507,0.010762,-0.037894,-0.006733,-0.001554,-0.001895,23.256765,27.719551,-1.000000,-1.000000,-1.000000
482149027.489265,0.059036,-0.008484,-1.041534,0.030052,0.009084,0.005773,0.999530,0.006043,-0.030046,-0.005773,0.999942,0.009084,0.030099,-0.008906,0.999507,0.030046,-0.009084,-0.999507,0.150771,0.004292,-0.019231,-0.005618,0.003126,0.000434,23.254881,27.717667,-1.000000,-1.000000,-1.000000
482149027.499250,0.113281,-0.005478,-1.006271,0.030091,0.009070,0.005839,0.999529,0.006109,-0.030085,-0.005838,0.999942,0.009069,0.030139,-0.008890,0.999506,0.030085,-0.009069,-0.999506,0.017232,-0.000361,-0.025244,-0.002263,0.005540,0.005276,23.254881,27.717667,-1.000000,-1.000000,-1.000000
482149027.509370,0.158722,-0.001968,-1.008438,0.030091,0.009070,0.005839,0.999529,0.006109,-0.030085,-0.005838,0.999942,0.009069,0.030139,-0.008890,0.999506,0.030085,-0.009069,-0.999506,0.017232,-0.000361,-0.025244,-0.002263,0.005540,0.005276,23.254881,27.717667,-1.000000,-1.000000,-1.000000
482149027.519246,0.041092,-0.004669,-1.034897,0.030104,0.009161,0.005844,0.999528,0.006117,-0.030098,-0.005844,0.999941,0.009161,0.030152,-0.008981,0.999505,0.030098,-0.009161,-0.999505,0.028938,0.000677,-0.042029,-0.001793,0.000692,-0.002859,23.254881,27.717667,-1.000000,-1.000000,-1.000000
482149027.529272,-0.013580,-0.016937,-1.010803,0.030110,0.009166,0.005824,0.999528,0.006097,-0.030104,-0.005824,0.999941,0.009166,0.030158,-0.008986,0.999505,0.030104,-0.009166,-0.999505,0.083177,0.003688,-0.006767,0.001836,0.001856,-0.002689,23.254881,27.717667,-1.000000,-1.000000,-1.000000
482149027.539192,-0.038147,-0.006699,-1.043488,0.030079,0.009229,0.005867,0.999529,0.006142,-0.030073,-0.005866,0.999940,0.009229,0.030128,-0.009048,0.999505,0.030073,-0.009229,-0.999505,0.011019,0.004560,-0.035392,0.005259,-0.000515,0.001045,23.256693,27.719479,-1.000000,-1.000000,-1.000000
482149027.549128,-0.076813,-0.012283,-1.058350,0.030079,0.009229,0.005867,0.999529,0.006142,-0.030073,-0.005866,0.999940,0.009229,0.030128,-0.009048,0.999505,0.030073,-0.009229,-0.999505,0.011019,0.004560,-0.035392,0.005259,-0.000515,0.001045,23.256693,27.719479,-1.000000,-1.000000,-1.000000
482149027.559173,-0.112976,-0.010193,-1.006165,0.030101,0.009261,0.005896,0.999528,0.006172,-0.030096,-0.005895,0.999940,0.009261,0.030151,-0.009079,0.999504,0.030096,-0.009261,-0.999504,-0.043676,-0.007677,-0.011299,0.000226,0.001925,0.004276,23.256693,27.719479,-1.000000,-1.000000,-1.000000
482149027.569345,0.028824,-0.000946,-1.042480,0.030076,0.009309,0.005879,0.999529,0.006156,-0.030070,-0.005879,0.999939,0.009309,0.030125,-0.009127,0.999504,0.030070,-0.009309,-0.999504,-0.068217,0.002610,-0.043983,0.012707,-0.000577,-0.002091,23.256693,27.719479,-1.000000,-1.000000,-1.000000
482149027.579129,0.051636,-0.005692,-1.048798,0.030088,0.009275,0.005858,0.999529,0.006134,-0.030082,-0.005858,0.999940,0.009275,0.030137,-0.009094,0.999504,0.030082,-0.009275,-0.999504,-0.106895,-0.003009,-0.058845,-0.009169,0.001923,-0.000912,23.256693,27.719479,-1.000000,-1.000000,-1.000000
482149027.589163,-0.072739,0.000275,-0.999985,0.030088,0.009275,0.005858,0.999529,0.006134,-0.030082,-0.005858,0.999940,0.009275,0.030137,-0.009094,0.999504,0.030082,-0.009275,-0.999504,-0.106895,-0.003009,-0.058845,-0.009169,0.001923,-0.000912,23.260008,27.722794,-1.000000,-1.000000,-1.000000
482149027.599282,-0.104721,-0.009354,-1.031921,0.030051,0.009243,0.005904,0.999529,0.006179,-0.030045,-0.005904,0.999940,0.009243,0.030101,-0.009061,0.999506,0.030045,-0.009243,-0.999506,-0.001221,0.008297,-0.042975,0.005059,-0.002870,0.004591,23.260008,27.722794,-1.000000,-1.000000,-1.000000
482149027.608808,-0.104721,-0.009354,-1.031921,0.030047,0.009242,0.005922,0.999529,0.006197,-0.030041,-0.005922,0.999940,0.009241,0.030096,-0.009059,0.999506,0.030041,-0.009241,-0.999506,0.021595,0.003550,-0.049292,-0.000848,-0.000479,0.001903,23.260008,27.722794,-1.000000,-1.000000,-1.000000
482149027.618897,-0.060532,0.001923,-1.043976,0.030047,0.009242,0.005922,0.999529,0.006197,-0.030041,-0.005922,0.999940,0.009241,0.030096,-0.009059,0.999506,0.030041,-0.009241,-0.999506,0.021595,0.003550,-0.049292,-0.000848,-0.000479,0.001903,23.260008,27.722794,-1.000000,-1.000000,-1.000000
482149027.629239,0.009903,-0.006699,-1.003708,0.030048,0.009279,0.005894,0.999530,0.006170,-0.030042,-0.005893,0.999940,0.009279,0.030098,-0.009097,0.999506,0.030042,-0.009279,-0.999506,-0.102781,0.009553,-0.000479,-0.000580,0.001866,-0.002814,23.260008,27.722794,-1.000000,-1.000000,-1.000000
482149027.639143,0.082611,0.005737,-1.034470,0.030044,0.009261,0.005879,0.999530,0.006154,-0.030038,-0.005879,0.999940,0.009261,0.030093,-0.009080,0.999506,0.030038,-0.009261,-0.999506,-0.134759,-0.000092,-0.032416,-0.000512,-0.001725,-0.003938,23.258640,27.721424,-1.000000,-1.000000,-1.000000
482149027.649219,0.198807,-0.001633,-1.022552,0.030018,0.009348,0.005879,0.999531,0.006157,-0.030012,-0.005879,0.999939,0.009348,0.030068,-0.009167,0.999506,0.030012,-0.009348,-0.999506,-0.020109,0.002649,-0.004202,-0.001855,0.000688,-0.001690,23.258640,27.721424,-1.000000,-1.000000,-1.000000
482149027.659236,0.218445,-0.000198,-1.002945,0.030018,0.009348,0.005879,0.999531,0.006157,-0.030012,-0.005879,0.999939,0.009348,0.030068,-0.009167,0.999506,0.030012,-0.009348,-0.999506,-0.020109,0.002649,-0.004202,-0.001855,0.000688,-0.001690,23.258640,27.721424,-1.000000,-1.000000,-1.000000
482149027.669180,0.120865,-0.011276,-1.003799,0.030035,0.009352,0.005880,0.999530,0.006159,-0.030029,-0.005880,0.999939,0.009352,0.030085,-0.009171,0.999505,0.030029,-0.009352,-0.999505,0.052582,0.015089,-0.034964,0.000360,0.000709,0.001950,23.258640,27.721424,-1.000000,-1.000000,-1.000000
482149027.679190,0.114029,-0.014160,-0.987656,0.029992,0.009356,0.005857,0.999531,0.006135,-0.029987,-0.005857,0.999939,0.009356,0.030042,-0.009176,0.999507,0.029987,-0.009356,-0.999507,0.188458,0.009158,-0.003438,0.006479,0.001828,0.001062,23.258640,27.721424,-1.000000,-1.000000,-1.000000
482149027.689068,0.145416,0.004745,-1.014191,0.030009,0.009371,0.005864,0.999531,0.006143,-0.030003,-0.005864,0.999939,0.009371,0.030059,-0.009191,0.999506,0.030003,-0.009371,-0.999506,0.188441,0.009173,-0.003439,-0.003117,0.001858,-0.000612,23.258640,27.721424,-1.000000,-1.000000,-1.000000
482149027.699113,0.186493,-0.011826,-1.035782,0.030009,0.009371,0.005864,0.999531,0.006143,-0.030003,-0.005864,0.999939,0.009371,0.030059,-0.009191,0.999506,0.030003,-0.009371,-0.999506,0.188441,0.009173,-0.003439,-0.003117,0.001858,-0.000612,23.254650,27.717434,-1.000000,-1.000000,-1.000000
482149027.709193,0.121262,-0.004196,-0.989273,0.030027,0.009358,0.005877,0.999530,0.006156,-0.030021,-0.005877,0.999939,0.009358,0.030077,-0.009177,0.999505,0.030021,-0.009358,-0.999505,0.084008,-0.004803,0.011850,0.001849,0.000622,-0.002687,23.254650,27.717434,-1.000000,-1.000000,-1.000000
482149027.719198,0.064636,-0.003372,-1.033508,0.030027,0.009346,0.005868,0.999530,0.006146,-0.030022,-0.005868,0.999939,0.009346,0.030077,-0.009165,0.999506,0.030022,-0.009346,-0.999506,0.115395,0.014091,-0.014685,-0.001641,0.001811,-0.005234,23.254650,27.717434,-1.000000,-1.000000,-1.000000
482149027.728690,0.064636,-0.003372,-1.033508,0.030027,0.009346,0.005868,0.999530,0.006146,-0.030022,-0.005868,0.999939,0.009346,0.030077,-0.009165,0.999506,0.030022,-0.009346,-0.999506,0.115395,0.014091,-0.014685,-0.001641,0.001811,-0.005234,23.254650,27.717434,-1.000000,-1.000000,-1.000000
482149027.739220,0.049667,-0.016449,-1.035202,0.030050,0.009387,0.005920,0.999529,0.006199,-0.030044,-0.005920,0.999938,0.009386,0.030101,-0.009204,0.999505,0.030044,-0.009386,-0.999505,0.091217,0.005190,0.010231,-0.006873,-0.001686,0.001590,23.254650,27.717434,-1.000000,-1.000000,-1.000000
482149027.749152,-0.073395,0.004959,-1.022430,0.030061,0.009457,0.005950,0.999529,0.006231,-0.030056,-0.005950,0.999938,0.009457,0.030113,-0.009273,0.999503,0.030056,-0.009457,-0.999503,0.091206,0.005261,0.010230,0.014799,0.003006,0.003828,23.253397,27.716183,-1.000000,-1.000000,-1.000000
482149027.759177,-0.066101,-0.014725,-1.020782,0.030079,0.009474,0.006039,0.999528,0.006321,-0.030073,-0.006039,0.999937,0.009474,0.030131,-0.009288,0.999503,0.030073,-0.009474,-0.999503,0.019594,-0.006975,-0.035699,-0.008215,-0.001660,0.003870,23.253397,27.716183,-1.000000,-1.000000,-1.000000
