Timestamp,Accel_X,Accel_Y,Accel_Z,Roll,Pitch,Yaw,RM11,RM12,RM13,RM21,RM22,RM23,RM31,RM32,RM33,GravAcc_X,GravAcc_Y,GravAcc_Z,UserAcc_X,UserAcc_Y,UserAcc_Z,RotRate_X,RotRate_Y,RotRate_Z,MagHeading,TrueHeading,HeadingAccuracy,Course,Speed
482148812.163698,0.039627,-0.003601,-1.025284,0.038504,0.005714,0.000015,0.999259,0.000235,-0.038494,-0.000015,0.999984,0.005714,0.038494,-0.005709,0.999242,0.038494,-0.005714,-0.999242,0.001240,0.002098,-0.027964,0.002055,-0.000749,-0.001202,23.164013,27.626797,-1.000000,-1.000000,-1.000000
482148812.173476,0.039536,-0.005569,-1.024277,0.038504,0.005714,0.000015,0.999259,0.000235,-0.038494,-0.000015,0.999984,0.005714,0.038494,-0.005709,0.999242,0.038494,-0.005714,-0.999242,0.001240,0.002098,-0.027964,0.002055,-0.000749,-0.001202,23.164013,27.626797,-1.000000,-1.000000,-1.000000
482148812.182731,0.042526,-0.009506,-1.026962,0.038504,0.005714,0.000015,0.999259,0.000235,-0.038494,-0.000015,0.999984,0.005714,0.038494,-0.005709,0.999242,0.038494,-0.005714,-0.999242,0.001240,0.002098,-0.027964,0.002055,-0.000749,-0.001202,23.164013,27.626797,-1.000000,-1.000000,-1.000000
482148812.191867,0.042526,-0.009506,-1.026962,0.038504,0.005714,0.000015,0.999259,0.000235,-0.038494,-0.000015,0.999984,0.005714,0.038494,-0.005709,0.999242,0.038494,-0.005714,-0.999242,0.001240,0.002098,-0.027964,0.002055,-0.000749,-0.001202,23.164013,27.626797,-1.000000,-1.000000,-1.000000
482148812.202777,0.035614,-0.005615,-1.024521,0.038504,0.005714,0.000015,0.999259,0.000235,-0.038494,-0.000015,0.999984,0.005714,0.038494,-0.005709,0.999242,0.038494,-0.005714,-0.999242,0.001240,0.002098,-0.027964,0.002055,-0.000749,-0.001202,23.164013,27.626797,-1.000000,-1.000000,-1.000000
482148812.211739,0.035568,-0.005600,-1.023560,0.038504,0.005714,0.000015,0.999259,0.000235,-0.038494,-0.000015,0.999984,0.005714,0.038494,-0.005709,0.999242,0.038494,-0.005714,-0.999242,0.001240,0.002098,-0.027964,0.002055,-0.000749,-0.001202,23.164013,27.626797,-1.000000,-1.000000,-1.000000
482148812.222558,0.036819,-0.004639,-1.028336,0.038504,0.005714,0.000015,0.999259,0.000235,-0.038494,-0.000015,0.999984,0.005714,0.038494,-0.005709,0.999242,0.038494,-0.005714,-0.999242,0.001240,0.002098,-0.027964,0.002055,-0.000749,-0.001202,23.164013,27.626797,-1.000000,-1.000000,-1.000000
482148812.232598,0.038193,-0.003525,-1.016617,0.038504,0.005714,0.000015,0.999259,0.000235,-0.038494,-0.000015,0.999984,0.005714,0.038494,-0.005709,0.999242,0.038494,-0.005714,-0.999242,0.001240,0.002098,-0.027964,0.002055,-0.000749,-0.001202,23.164013,27.626797,-1.000000,-1.000000,-1.000000
482148812.242550,0.043594,-0.007523,-1.027893,0.038504,0.005714,0.000015,0.999259,0.000235,-0.038494,-0.000015,0.999984,0.005714,0.038494,-0.005709,0.999242,0.038494,-0.005714,-0.999242,0.001240,0.002098,-0.027964,0.002055,-0.000749,-0.001202,23.164013,27.626797,-1.000000,-1.000000,-1.000000
482148812.252549,0.038574,-0.006592,-1.025299,0.038504,0.005714,0.000015,0.999259,0.000235,-0.038494,-0.000015,0.999984,0.005714,0.038494,-0.005709,0.999242,0.038494,-0.005714,-0.999242,0.001240,0.002098,-0.027964,0.002055,-0.000749,-0.001202,23.164013,27.626797,-1.000000,-1.000000,-1.000000
482148812.262350,0.039459,-0.006546,-1.023300,0.038504,0.005714,0.000015,0.999259,0.000235,-0.038494,-0.000015,0.999984,0.005714,0.038494,-0.005709,0.999242,0.038494,-0.005714,-0.999242,0.001240,0.002098,-0.027964,0.002055,-0.000749,-0.001202,23.164013,27.626797,-1.000000,-1.000000,-1.000000
482148812.272547,0.035629,-0.004623,-1.024536,0.038504,0.005714,0.000015,0.999259,0.000235,-0.038494,-0.000015,0.999984,0.005714,0.038494,-0.005709,0.999242,0.038494,-0.005714,-0.999242,0.001240,0.002098,-0.027964,0.002055,-0.000749,-0.001202,23.164013,27.626797,-1.000000,-1.000000,-1.000000
482148812.283590,0.035538,-0.006592,-1.023544,0.038504,0.005714,0.000015,0.999259,0.000235,-0.038494,-0.000015,0.999984,0.005714,0.038494,-0.005709,0.999242,0.038494,-0.005714,-0.999242,0.001240,0.002098,-0.027964,0.002055,-0.000749,-0.001202,23.164013,27.626797,-1.000000,-1.000000,-1.000000
482148812.292459,0.035614,-0.005615,-1.024521,0.038504,0.005714,0.000015,0.999259,0.000235,-0.038494,-0.000015,0.999984,0.005714,0.038494,-0.005709,0.999242,0.038494,-0.005714,-0.999242,0.001240,0.002098,-0.027964,0.002055,-0.000749,-0.001202,23.164013,27.626797,-1.000000,-1.000000,-1.000000
482148812.302550,0.038483,-0.006561,-1.023361,0.038504,0.005714,0.000015,0.999259,0.000235,-0.038494,-0.000015,0.999984,0.005714,0.038494,-0.005709,0.999242,0.038494,-0.005714,-0.999242,0.001240,0.002098,-0.027964,0.002055,-0.000749,-0.001202,23.164013,27.626797,-1.000000,-1.000000,-1.000000
482148812.312531,0.035553,-0.007584,-1.024506,0.038504,0.005714,0.000015,0.999259,0.000235,-0.038494,-0.000015,0.999984,0.005714,0.038494,-0.005709,0.999242,0.038494,-0.005714,-0.999242,0.001240,0.002098,-0.027964,0.002055,-0.000749,-0.001202,23.164013,27.626797,-1.000000,-1.000000,-1.000000
482148812.322537,0.034576,-0.007599,-1.024567,0.038504,0.005714,0.000015,0.999259,0.000235,-0.038494,-0.000015,0.999984,0.005714,0.038494,-0.005709,0.999242,0.038494,-0.005714,-0.999242,0.001240,0.002098,-0.027964,0.002055,-0.000749,-0.001202,23.164013,27.626797,-1.000000,-1.000000,-1.000000
482148812.331956,0.034576,-0.007599,-1.024567,0.038504,0.005714,0.000015,0.999259,0.000235,-0.038494,-0.000015,0.999984,0.005714,0.038494,-0.005709,0.999242,0.038494,-0.005714,-0.999242,0.001240,0.002098,-0.027964,0.002055,-0.000749,-0.001202,23.164013,27.626797,-1.000000,-1.000000,-1.000000
482148812.343606,0.038284,-0.008514,-1.020432,0.038504,0.005714,0.000015,0.999259,0.000235,-0.038494,-0.000015,0.999984,0.005714,0.038494,-0.005709,0.999242,0.038494,-0.005714,-0.999242,0.001240,0.002098,-0.027964,0.002055,-0.000749,-0.001202,23.164013,27.626797,-1.000000,-1.000000,-1.000000
482148812.352629,0.038284,-0.008514,-1.020432,0.038504,0.005714,0.000015,0.999259,0.000235,-0.038494,-0.000015,0.999984,0.005714,0.038494,-0.005709,0.999242,0.038494,-0.005714,-0.999242,0.001240,0.002098,-0.027964,0.002055,-0.000749,-0.001202,23.164013,27.626797,-1.000000,-1.000000,-1.000000
482148812.362524,0.039352,-0.008530,-1.022308,0.038504,0.005714,0.000015,0.999259,0.000235,-0.038494,-0.000015,0.999984,0.005714,0.038494,-0.005709,0.999242,0.038494,-0.005714,-0.999242,0.001240,0.002098,-0.027964,0.002055,-0.000749,-0.001202,23.164013,27.626797,-1.000000,-1.000000,-1.000000
482148812.371795,0.042557,-0.008530,-1.026978,0.038504,0.005714,0.000015,0.999259,0.000235,-0.038494,-0.000015,0.999984,0.005714,0.038494,-0.005709,0.999242,0.038494,-0.005714,-0.999242,0.001240,0.002098,-0.027964,0.002055,-0.000749,-0.001202,23.164013,27.626797,-1.000000,-1.000000,-1.000000
482148812.382580,0.037613,-0.003601,-1.024429,0.038504,0.005714,0.000015,0.999259,0.000235,-0.038494,-0.000015,0.999984,0.005714,0.038494,-0.005709,0.999242,0.038494,-0.005714,-0.999242,0.001240,0.002098,-0.027964,0.002055,-0.000749,-0.001202,23.164013,27.626797,-1.000000,-1.000000,-1.000000
482148812.392529,0.037369,-0.005539,-1.020523,0.038504,0.005714,0.000015,0.999259,0.000235,-0.038494,-0.000015,0.999984,0.005714,0.038494,-0.005709,0.999242,0.038494,-0.005714,-0.999242,0.001240,0.002098,-0.027964,0.002055,-0.000749,-0.001202,23.164013,27.626797,-1.000000,-1.000000,-1.000000
482148812.402652,0.042206,-0.008453,-1.020203,0.038504,0.005714,0.000015,0.999259,0.000235,-0.038494,-0.000015,0.999984,0.005714,0.038494,-0.005709,0.999242,0.038494,-0.005714,-0.999242,0.001240,0.002098,-0.027964,0.002055,-0.000749,-0.001202,23.164013,27.626797,-1.000000,-1.000000,-1.000000
482148812.412592,0.038376,-0.006546,-1.021408,0.038504,0.005714,0.000015,0.999259,0.000235,-0.038494,-0.000015,0.999984,0.005714,0.038494,-0.005709,0.999242,0.038494,-0.005714,-0.999242,0.001240,0.002098,-0.027964,0.002055,-0.000749,-0.001202,23.164013,27.626797,-1.000000,-1.000000,-1.000000
482148812.422551,0.037338,-0.008530,-1.021454,0.038504,0.005714,0.000015,0.999259,0.000235,-0.038494,-0.000015,0.999984,0.005714,0.038494,-0.005709,0.999242,0.038494,-0.005714,-0.999242,0.001240,0.002098,-0.027964,0.002055,-0.000749,-0.001202,23.164013,27.626797,-1.000000,-1.000000,-1.000000
482148812.432509,0.038605,-0.003601,-1.024368,0.038504,0.005714,0.000015,0.999259,0.000235,-0.038494,-0.000015,0.999984,0.005714,0.038494,-0.005709,0.999242,0.038494,-0.005714,-0.999242,0.001240,0.002098,-0.027964,0.002055,-0.000749,-0.001202,23.164013,27.626797,-1.000000,-1.000000,-1.000000
482148812.441826,0.038605,-0.003601,-1.024368,0.038504,0.005714,0.000015,0.999259,0.000235,-0.038494,-0.000015,0.999984,0.005714,0.038494,-0.005709,0.999242,0.038494,-0.005714,-0.999242,0.001240,0.002098,-0.027964,0.002055,-0.000749,-0.001202,23.164013,27.626797,-1.000000,-1.000000,-1.000000
482148812.452616,0.041534,-0.005554,-1.025146,0.038504,0.005714,0.000015,0.999259,0.000235,-0.038494,-0.000015,0.999984,0.005714,0.038494,-0.005709,0.999242,0.038494,-0.005714,-0.999242,0.001240,0.002098,-0.027964,0.002055,-0.000749,-0.001202,23.164013,27.626797,-1.000000,-1.000000,-1.000000
482148812.462596,0.037567,-0.005585,-1.024399,0.038504,0.005714,0.000015,0.999259,0.000235,-0.038494,-0.000015,0.999984,0.005714,0.038494,-0.005709,0.999242,0.038494,-0.005714,-0.999242,0.001240,0.002098,-0.027964,0.002055,-0.000749,-0.001202,23.164013,27.626797,-1.000000,-1.000000,-1.000000
482148812.472544,0.038635,-0.006592,-1.026260,0.038504,0.005714,0.000015,0.999259,0.000235,-0.038494,-0.000015,0.999984,0.005714,0.038494,-0.005709,0.999242,0.038494,-0.005714,-0.999242,0.001240,0.002098,-0.027964,0.002055,-0.000749,-0.001202,23.164013,27.626797,-1.000000,-1.000000,-1.000000
482148812.482629,0.041382,-0.007492,-1.023193,0.038504,0.005714,0.000015,0.999259,0.000235,-0.038494,-0.000015,0.999984,0.005714,0.038494,-0.005709,0.999242,0.038494,-0.005714,-0.999242,0.001240,0.002098,-0.027964,0.002055,-0.000749,-0.001202,23.164013,27.626797,-1.000000,-1.000000,-1.000000
482148812.492549,0.043427,-0.006516,-1.024033,0.038504,0.005714,0.000015,0.999259,0.000235,-0.038494,-0.000015,0.999984,0.005714,0.038494,-0.005709,0.999242,0.038494,-0.005714,-0.999242,0.001240,0.002098,-0.027964,0.002055,-0.000749,-0.001202,23.164013,27.626797,-1.000000,-1.000000,-1.000000
482148812.502703,0.034637,-0.005630,-1.024582,0.038504,0.005714,0.000015,0.999259,0.000235,-0.038494,-0.000015,0.999984,0.005714,0.038494,-0.005709,0.999242,0.038494,-0.005714,-0.999242,0.001240,0.002098,-0.027964,0.002055,-0.000749,-0.001202,23.164013,27.626797,-1.000000,-1.000000,-1.000000
482148812.512543,0.035507,-0.003601,-1.021637,0.038504,0.005714,0.000015,0.999259,0.000235,-0.038494,-0.000015,0.999984,0.005714,0.038494,-0.005709,0.999242,0.038494,-0.005714,-0.999242,0.001240,0.002098,-0.027964,0.002055,-0.000749,-0.001202,23.164013,27.626797,-1.000000,-1.000000,-1.000000
482148812.522626,0.037384,-0.006546,-1.021469,0.038504,0.005714,0.000015,0.999259,0.000235,-0.038494,-0.000015,0.999984,0.005714,0.038494,-0.005709,0.999242,0.038494,-0.005714,-0.999242,0.001240,0.002098,-0.027964,0.002055,-0.000749,-0.001202,23.164013,27.626797,-1.000000,-1.000000,-1.000000
482148812.532404,0.039642,-0.005585,-1.026215,0.038504,0.005714,0.000015,0.999259,0.000235,-0.038494,-0.000015,0.999984,0.005714,0.038494,-0.005709,0.999242,0.038494,-0.005714,-0.999242,0.001240,0.002098,-0.027964,0.002055,-0.000749,-0.001202,23.164013,27.626797,-1.000000,-1.000000,-1.000000
482148812.542494,0.036682,-0.002625,-1.024490,0.038504,0.005714,0.000015,0.999259,0.000235,-0.038494,-0.000015,0.999984,0.005714,0.038494,-0.005709,0.999242,0.038494,-0.005714,-0.999242,0.001240,0.002098,-0.027964,0.002055,-0.000749,-0.001202,23.164013,27.626797,-1.000000,-1.000000,-1.000000
482148812.552562,0.036530,-0.006577,-1.023483,0.038504,0.005714,0.000015,0.999259,0.000235,-0.038494,-0.000015,0.999984,0.005714,0.038494,-0.005709,0.999242,0.038494,-0.005714,-0.999242,0.001240,0.002098,-0.027964,0.002055,-0.000749,-0.001202,23.164013,27.626797,-1.000000,-1.000000,-1.000000
482148812.562457,0.036530,-0.006577,-1.023483,0.038504,0.005714,0.000015,0.999259,0.000235,-0.038494,-0.000015,0.999984,0.005714,0.038494,-0.005709,0.999242,0.038494,-0.005714,-0.999242,0.001240,0.002098,-0.027964,0.002055,-0.000749,-0.001202,23.164013,27.626797,-1.000000,-1.000000,-1.000000
482148812.572555,0.043335,-0.008484,-1.023056,0.038504,0.005714,0.000015,0.999259,0.000235,-0.038494,-0.000015,0.999984,0.005714,0.038494,-0.005709,0.999242,0.038494,-0.005714,-0.999242,0.001240,0.002098,-0.027964,0.002055,-0.000749,-0.001202,23.164013,27.626797,-1.000000,-1.000000,-1.000000
482148812.582536,0.039429,-0.003555,-1.021393,0.038504,0.005714,0.000015,0.999259,0.000235,-0.038494,-0.000015,0.999984,0.005714,0.038494,-0.005709,0.999242,0.038494,-0.005714,-0.999242,0.001240,0.002098,-0.027964,0.002055,-0.000749,-0.001202,23.164013,27.626797,-1.000000,-1.000000,-1.000000
482148812.592554,0.040237,-0.010468,-1.021255,0.038504,0.005714,0.000015,0.999259,0.000235,-0.038494,-0.000015,0.999984,0.005714,0.038494,-0.005709,0.999242,0.038494,-0.005714,-0.999242,0.001240,0.002098,-0.027964,0.002055,-0.000749,-0.001202,23.164013,27.626797,-1.000000,-1.000000,-1.000000
482148812.602535,0.031693,-0.003662,-1.023819,0.038504,0.005714,0.000015,0.999259,0.000235,-0.038494,-0.000015,0.999984,0.005714,0.038494,-0.005709,0.999242,0.038494,-0.005714,-0.999242,0.001240,0.002098,-0.027964,0.002055,-0.000749,-0.001202,23.164013,27.626797,-1.000000,-1.000000,-1.000000
482148812.612601,0.042267,-0.009460,-1.022125,0.038504,0.005714,0.000015,0.999259,0.000235,-0.038494,-0.000015,0.999984,0.005714,0.038494,-0.005709,0.999242,0.038494,-0.005714,-0.999242,0.001240,0.002098,-0.027964,0.002055,-0.000749,-0.001202,23.164013,27.626797,-1.000000,-1.000000,-1.000000
482148812.622557,0.038483,-0.006561,-1.023361,0.038504,0.005714,0.000015,0.999259,0.000235,-0.038494,-0.000015,0.999984,0.005714,0.038494,-0.005709,0.999242,0.038494,-0.005714,-0.999242,0.001240,0.002098,-0.027964,0.002055,-0.000749,-0.001202,23.164013,27.626797,-1.000000,-1.000000,-1.000000
482148812.632531,0.035629,-0.006622,-1.025482,0.038504,0.005714,0.000015,0.999259,0.000235,-0.038494,-0.000015,0.999984,0.005714,0.038494,-0.005709,0.999242,0.038494,-0.005714,-0.999242,0.001240,0.002098,-0.027964,0.002055,-0.000749,-0.001202,23.164013,27.626797,-1.000000,-1.000000,-1.000000
482148812.642572,0.038406,-0.003555,-1.020493,0.038504,0.005714,0.000015,0.999259,0.000235,-0.038494,-0.000015,0.999984,0.005714,0.038494,-0.005709,0.999242,0.038494,-0.005714,-0.999242,0.001240,0.002098,-0.027964,0.002055,-0.000749,-0.001202,23.164013,27.626797,-1.000000,-1.000000,-1.000000
482148812.652776,0.036575,-0.006592,-1.024445,0.038504,0.005714,0.000015,0.999259,0.000235,-0.038494,-0.000015,0.999984,0.005714,0.038494,-0.005709,0.999242,0.038494,-0.005714,-0.999242,0.001240,0.002098,-0.027964,0.002055,-0.000749,-0.001202,23.164013,27.626797,-1.000000,-1.000000,-1.000000
482148812.661805,0.031570,-0.010605,-1.024689,0.038504,0.005714,0.000015,0.999259,0.000235,-0.038494,-0.000015,0.999984,0.005714,0.038494,-0.005709,0.999242,0.038494,-0.005714,-0.999242,0.001240,0.002098,-0.027964,0.002055,-0.000749,-0.001202,23.164013,27.626797,-1.000000,-1.000000,-1.000000
482148812.672387,0.042358,-0.010468,-1.024048,0.038504,0.005714,0.000015,0.999259,0.000235,-0.038494,-0.000015,0.999984,0.005714,0.038494,-0.005709,0.999242,0.038494,-0.005714,-0.999242,0.001240,0.002098,-0.027964,0.002055,-0.000749,-0.001202,23.164013,27.626797,-1.000000,-1.000000,-1.000000
482148812.682543,0.034531,-0.005615,-1.022644,0.038504,0.005714,0.000015,0.999259,0.000235,-0.038494,-0.000015,0.999984,0.005714,0.038494,-0.005709,0.999242,0.038494,-0.005714,-0.999242,0.001240,0.002098,-0.027964,0.002055,-0.000749,-0.001202,23.164013,27.626797,-1.000000,-1.000000,-1.000000
482148812.692018,0.034531,-0.005615,-1.022644,0.038504,0.005714,0.000015,0.999259,0.000235,-0.038494,-0.000015,0.999984,0.005714,0.038494,-0.005709,0.999242,0.038494,-0.005714,-0.999242,0.001240,0.002098,-0.027964,0.002055,-0.000749,-0.001202,23.164013,27.626797,-1.000000,-1.000000,-1.000000
482148812.701720,0.039352,-0.006531,-1.021347,0.038504,0.005714,0.000015,0.999259,0.000235,-0.038494,-0.000015,0.999984,0.005714,0.038494,-0.005709,0.999242,0.038494,-0.005714,-0.999242,0.001240,0.002098,-0.027964,0.002055,-0.000749,-0.001202,23.164013,27.626797,-1.000000,-1.000000,-1.000000
482148812.712576,0.037384,-0.006546,-1.021469,0.038504,0.005714,0.000015,0.999259,0.000235,-0.038494,-0.000015,0.999984,0.005714,0.038494,-0.005709,0.999242,0.038494,-0.005714,-0.999242,0.001240,0.002098,-0.027964,0.002055,-0.000749,-0.001202,23.164013,27.626797,-1.000000,-1.000000,-1.000000
482148812.722576,0.039551,-0.006577,-1.025238,0.038504,0.005714,0.000015,0.999259,0.000235,-0.038494,-0.000015,0.999984,0.005714,0.038494,-0.005709,0.999242,0.038494,-0.005714,-0.999242,0.001240,0.002098,-0.027964,0.002055,-0.000749,-0.001202,23.164013,27.626797,-1.000000,-1.000000,-1.000000
482148812.732433,0.038361,-0.005539,-1.020462,0.038504,0.005714,0.000015,0.999259,0.000235,-0.038494,-0.000015,0.999984,0.005714,0.038494,-0.005709,0.999242,0.038494,-0.005714,-0.999242,0.001240,0.002098,-0.027964,0.002055,-0.000749,-0.001202,23.164013,27.626797,-1.000000,-1.000000,-1.000000
482148812.741838,0.039597,-0.004593,-1.025269,0.038504,0.005714,0.000015,0.999259,0.000235,-0.038494,-0.000015,0.999984,0.005714,0.038494,-0.005709,0.999242,0.038494,-0.005714,-0.999242,0.001240,0.002098,-0.027964,0.002055,-0.000749,-0.001202,23.164013,27.626797,-1.000000,-1.000000,-1.000000
482148812.751879,0.040237,-0.008484,-1.020325,0.038504,0.005714,0.000015,0.999259,0.000235,-0.038494,-0.000015,0.999984,0.005714,0.038494,-0.005709,0.999242,0.038494,-0.005714,-0.999242,0.001240,0.002098,-0.027964,0.002055,-0.000749,-0.001202,23.164013,27.626797,-1.000000,-1.000000,-1.000000
482148812.762503,0.036163,-0.006516,-1.016693,0.038504,0.005714,0.000015,0.999259,0.000235,-0.038494,-0.000015,0.999984,0.005714,0.038494,-0.005709,0.999242,0.038494,-0.005714,-0.999242,0.001240,0.002098,-0.027964,0.002055,-0.000749,-0.001202,23.164013,27.626797,-1.000000,-1.000000,-1.000000
482148812.772577,0.038452,-0.005569,-1.022400,0.038504,0.005714,0.000015,0.999259,0.000235,-0.038494,-0.000015,0.999984,0.005714,0.038494,-0.005709,0.999242,0.038494,-0.005714,-0.999242,0.001240,0.002098,-0.027964,0.002055,-0.000749,-0.001202,23.164013,27.626797,-1.000000,-1.000000,-1.000000
482148812.782523,0.036484,-0.002579,-1.020615,0.038504,0.005714,0.000015,0.999259,0.000235,-0.038494,-0.000015,0.999984,0.005714,0.038494,-0.005709,0.999242,0.038494,-0.005714,-0.999242,0.001240,0.002098,-0.027964,0.002055,-0.000749,-0.001202,23.164013,27.626797,-1.000000,-1.000000,-1.000000
482148812.792667,0.042465,-0.007507,-1.025070,0.038504,0.005714,0.000015,0.999259,0.000235,-0.038494,-0.000015,0.999984,0.005714,0.038494,-0.005709,0.999242,0.038494,-0.005714,-0.999242,0.001240,0.002098,-0.027964,0.002055,-0.000749,-0.001202,23.164013,27.626797,-1.000000,-1.000000,-1.000000
482148812.801978,0.036621,-0.004608,-1.024475,0.038504,0.005714,0.000015,0.999259,0.000235,-0.038494,-0.000015,0.999984,0.005714,0.038494,-0.005709,0.999242,0.038494,-0.005714,-0.999242,0.001240,0.002098,-0.027964,0.002055,-0.000749,-0.001202,23.164013,27.626797,-1.000000,-1.000000,-1.000000
482148812.812830,0.038422,-0.006561,-1.022385,0.038504,0.005714,0.000015,0.999259,0.000235,-0.038494,-0.000015,0.999984,0.005714,0.038494,-0.005709,0.999242,0.038494,-0.005714,-0.999242,0.001240,0.002098,-0.027964,0.002055,-0.000749,-0.001202,23.164013,27.626797,-1.000000,-1.000000,-1.000000
482148812.822490,0.038422,-0.006561,-1.022385,0.038504,0.005714,0.000015,0.999259,0.000235,-0.038494,-0.000015,0.999984,0.005714,0.038494,-0.005709,0.999242,0.038494,-0.005714,-0.999242,0.001240,0.002098,-0.027964,0.002055,-0.000749,-0.001202,23.164013,27.626797,-1.000000,-1.000000,-1.000000
482148812.832673,0.042282,-0.005478,-1.020233,0.038504,0.005714,0.000015,0.999259,0.000235,-0.038494,-0.000015,0.999984,0.005714,0.038494,-0.005709,0.999242,0.038494,-0.005714,-0.999242,0.001240,0.002098,-0.027964,0.002055,-0.000749,-0.001202,23.164013,27.626797,-1.000000,-1.000000,-1.000000
482148812.842667,0.035614,-0.005615,-1.024521,0.038504,0.005714,0.000015,0.999259,0.000235,-0.038494,-0.000015,0.999984,0.005714,0.038494,-0.005709,0.999242,0.038494,-0.005714,-0.999242,0.001240,0.002098,-0.027964,0.002055,-0.000749,-0.001202,23.164013,27.626797,-1.000000,-1.000000,-1.000000
482148812.852560,0.036530,-0.006577,-1.023483,0.038504,0.005714,0.000015,0.999259,0.000235,-0.038494,-0.000015,0.999984,0.005714,0.038494,-0.005709,0.999242,0.038494,-0.005714,-0.999242,0.001240,0.002098,-0.027964,0.002055,-0.000749,-0.001202,23.164013,27.626797,-1.000000,-1.000000,-1.000000
482148812.862629,0.044296,-0.004486,-1.021088,0.038504,0.005714,0.000015,0.999259,0.000235,-0.038494,-0.000015,0.999984,0.005714,0.038494,-0.005709,0.999242,0.038494,-0.005714,-0.999242,0.001240,0.002098,-0.027964,0.002055,-0.000749,-0.001202,23.164013,27.626797,-1.000000,-1.000000,-1.000000
482148812.872656,0.037338,-0.006531,-1.020508,0.038504,0.005714,0.000015,0.999259,0.000235,-0.038494,-0.000015,0.999984,0.005714,0.038494,-0.005709,0.999242,0.038494,-0.005714,-0.999242,0.001240,0.002098,-0.027964,0.002055,-0.000749,-0.001202,23.164013,27.626797,-1.000000,-1.000000,-1.000000
482148812.882640,0.040512,-0.005554,-1.024231,0.038504,0.005714,0.000015,0.999259,0.000235,-0.038494,-0.000015,0.999984,0.005714,0.038494,-0.005709,0.999242,0.038494,-0.005714,-0.999242,0.001240,0.002098,-0.027964,0.002055,-0.000749,-0.001202,23.164013,27.626797,-1.000000,-1.000000,-1.000000
482148812.892609,0.038712,-0.003616,-1.026306,0.038504,0.005714,0.000015,0.999259,0.000235,-0.038494,-0.000015,0.999984,0.005714,0.038494,-0.005709,0.999242,0.038494,-0.005714,-0.999242,0.001240,0.002098,-0.027964,0.002055,-0.000749,-0.001202,23.164013,27.626797,-1.000000,-1.000000,-1.000000
482148812.902401,0.042374,-0.005508,-1.022171,0.038504,0.005714,0.000015,0.999259,0.000235,-0.038494,-0.000015,0.999984,0.005714,0.038494,-0.005709,0.999242,0.038494,-0.005714,-0.999242,0.001240,0.002098,-0.027964,0.002055,-0.000749,-0.001202,23.164013,27.626797,-1.000000,-1.000000,-1.000000
482148812.912745,0.040573,-0.004578,-1.025223,0.038504,0.005714,0.000015,0.999259,0.000235,-0.038494,-0.000015,0.999984,0.005714,0.038494,-0.005709,0.999242,0.038494,-0.005714,-0.999242,0.001240,0.002098,-0.027964,0.002055,-0.000749,-0.001202,23.164013,27.626797,-1.000000,-1.000000,-1.000000
482148812.922697,0.038727,-0.004623,-1.027252,0.038581,0.005436,-0.000084,0.999256,0.000125,-0.038571,0.000084,0.999985,0.005436,0.038571,-0.005435,0.999241,0.038571,-0.005436,-0.999241,0.000141,0.001820,-0.027065,0.000446,0.000425,0.004460,23.164013,27.626797,-1.000000,-1.000000,-1.000000
482148812.932842,0.038727,-0.004623,-1.027252,0.038909,0.005468,-0.000007,0.999243,0.000206,-0.038899,0.000007,0.999985,0.005468,0.038899,-0.005464,0.999228,0.038899,-0.005468,-0.999228,0.003475,-0.000040,-0.022943,0.007560,-0.000778,0.007195,23.164013,27.626797,-1.000000,-1.000000,-1.000000
482148812.942658,0.038239,-0.010483,-1.020401,0.038976,0.005439,0.000037,0.999241,0.000249,-0.038966,-0.000037,0.999985,0.005439,0.038967,-0.005434,0.999226,0.038966,-0.005439,-0.999226,0.001607,0.000862,-0.025997,0.009103,-0.002029,0.001418,23.164013,27.626797,-1.000000,-1.000000,-1.000000
482148812.952824,0.038483,-0.002579,-1.021454,0.038976,0.005439,0.000037,0.999241,0.000249,-0.038966,-0.000037,0.999985,0.005439,0.038967,-0.005434,0.999226,0.038966,-0.005439,-0.999226,0.001607,0.000862,-0.025997,0.009103,-0.002029,0.001418,23.164013,27.626797,-1.000000,-1.000000,-1.000000
482148812.961871,0.043457,-0.011475,-1.026886,0.038846,0.005406,0.000069,0.999246,0.000279,-0.038836,-0.000069,0.999985,0.005406,0.038837,-0.005399,0.999231,0.038836,-0.005406,-0.999231,-0.000109,0.000783,-0.028021,0.006419,-0.001977,0.005977,23.164013,27.626797,-1.000000,-1.000000,-1.000000
482148812.972615,0.040619,-0.005569,-1.026169,0.038697,0.005593,0.000124,0.999251,0.000340,-0.038687,-0.000124,0.999984,0.005593,0.038688,-0.005584,0.999236,0.038687,-0.005593,-0.999236,-0.000204,0.003014,-0.022218,-0.000561,0.000397,0.000883,23.164013,27.626797,-1.000000,-1.000000,-1.000000
482148812.982682,0.038635,-0.010559,-1.028137,0.038697,0.005593,0.000124,0.999251,0.000340,-0.038687,-0.000124,0.999984,0.005593,0.038688,-0.005584,0.999236,0.038687,-0.005593,-0.999236,-0.000204,0.003014,-0.022218,-0.000561,0.000397,0.000883,23.164013,27.626797,-1.000000,-1.000000,-1.000000
482148812.992561,0.039307,-0.006516,-1.020386,0.038968,0.006021,0.000110,0.999241,0.000344,-0.038958,-0.000110,0.999982,0.006021,0.038959,-0.006012,0.999223,0.038958,-0.006021,-0.999223,0.004499,-0.005454,-0.027663,0.004408,0.000358,-0.001208,23.164013,27.626797,-1.000000,-1.000000,-1.000000
482148813.002585,0.040237,-0.008484,-1.020325,0.038965,0.006007,0.000149,0.999241,0.000383,-0.038954,-0.000149,0.999982,0.006007,0.038956,-0.005997,0.999223,0.038954,-0.006007,-0.999223,0.001665,0.000438,-0.026946,0.005282,-0.004368,0.004775,23.164013,27.626797,-1.000000,-1.000000,-1.000000
482148813.012619,0.031845,-0.005692,-1.027649,0.038865,0.006314,0.000201,0.999245,0.000446,-0.038855,-0.000201,0.999980,0.006314,0.038857,-0.006301,0.999225,0.038855,-0.006314,-0.999225,-0.000219,-0.004245,-0.028912,0.003942,-0.000763,0.007007,23.164013,27.626797,-1.000000,-1.000000,-1.000000
482148813.022555,0.040421,-0.004547,-1.022308,0.038865,0.006314,0.000201,0.999245,0.000446,-0.038855,-0.000201,0.999980,0.006314,0.038857,-0.006301,0.999225,0.038855,-0.006314,-0.999225,-0.000219,-0.004245,-0.028912,0.003942,-0.000763,0.007007,23.164013,27.626797,-1.000000,-1.000000,-1.000000
482148813.032602,0.039398,-0.004547,-1.021378,0.038879,0.006360,0.000287,0.999244,0.000534,-0.038868,-0.000287,0.999980,0.006360,0.038871,-0.006344,0.999224,0.038868,-0.006360,-0.999224,0.001369,-0.002124,-0.021101,-0.005518,0.001634,0.002959,23.164013,27.626797,-1.000000,-1.000000,-1.000000
482148813.042650,0.039398,-0.004547,-1.021378,0.038448,0.006298,0.000373,0.999261,0.000615,-0.038438,-0.000373,0.999980,0.006298,0.038441,-0.006279,0.999241,0.038438,-0.006298,-0.999241,-0.006593,0.000606,-0.028408,-0.002297,0.000480,0.010190,23.164013,27.626797,-1.000000,-1.000000,-1.000000
482148813.052612,0.040375,-0.006531,-1.022278,0.038538,0.006279,0.000461,0.999257,0.000702,-0.038528,-0.000461,0.999980,0.006279,0.038532,-0.006257,0.999238,0.038528,-0.006279,-0.999238,0.001893,0.001732,-0.023071,-0.001562,0.000365,-0.002694,23.164013,27.626797,-1.000000,-1.000000,-1.000000
482148813.062594,0.033646,-0.005646,-1.024628,0.038538,0.006279,0.000461,0.999257,0.000702,-0.038528,-0.000461,0.999980,0.006279,0.038532,-0.006257,0.999238,0.038528,-0.006279,-0.999238,0.001893,0.001732,-0.023071,-0.001562,0.000365,-0.002694,23.164013,27.626797,-1.000000,-1.000000,-1.000000
482148813.072629,0.039261,-0.010483,-1.021301,0.038574,0.006190,0.000505,0.999256,0.000744,-0.038564,-0.000505,0.999981,0.006190,0.038567,-0.006166,0.999237,0.038564,-0.006190,-0.999237,0.000835,0.001643,-0.022141,0.006360,0.004384,0.004602,23.164013,27.626797,-1.000000,-1.000000,-1.000000
482148813.082619,0.036453,-0.003571,-1.020615,0.038334,0.006252,0.000561,0.999265,0.000800,-0.038324,-0.000561,0.999980,0.006252,0.038328,-0.006226,0.999246,0.038324,-0.006252,-0.999246,-0.004678,0.000606,-0.025382,0.004953,0.000838,0.008100,23.164013,27.626797,-1.000000,-1.000000,-1.000000
482148813.092611,0.038300,-0.005539,-1.019485,0.038334,0.006252,0.000561,0.999265,0.000800,-0.038324,-0.000561,0.999980,0.006252,0.038328,-0.006226,0.999246,0.038324,-0.006252,-0.999246,-0.004678,0.000606,-0.025382,0.004953,0.000838,0.008100,23.164013,27.626797,-1.000000,-1.000000,-1.000000
482148813.102605,0.038605,-0.005600,-1.025314,0.038345,0.006468,0.000579,0.999265,0.000827,-0.038335,-0.000579,0.999979,0.006468,0.038339,-0.006441,0.999244,0.038335,-0.006468,-0.999244,0.000926,-0.004015,-0.022057,-0.003032,0.000800,-0.000538,23.164013,27.626797,-1.000000,-1.000000,-1.000000
482148813.112608,0.034653,-0.004639,-1.024597,0.038250,0.006347,0.000632,0.999268,0.000875,-0.038240,-0.000632,0.999980,0.006347,0.038245,-0.006318,0.999248,0.038240,-0.006347,-0.999248,-0.001787,0.002776,-0.021366,-0.000753,0.004391,0.001883,23.164013,27.626797,-1.000000,-1.000000,-1.000000
482148813.122664,0.035492,-0.010559,-1.024460,0.038244,0.006347,0.000635,0.999268,0.000877,-0.038234,-0.000635,0.999980,0.006347,0.038239,-0.006318,0.999249,0.038234,-0.006347,-0.999249,0.000065,0.000808,-0.020237,0.005354,0.000774,0.001073,23.164013,27.626797,-1.000000,-1.000000,-1.000000
482148813.132587,0.035492,-0.008575,-1.023529,0.038244,0.006347,0.000635,0.999268,0.000877,-0.038234,-0.000635,0.999980,0.006347,0.038239,-0.006318,0.999249,0.038234,-0.006347,-0.999249,0.000065,0.000808,-0.020237,0.005354,0.000774,0.001073,23.164013,27.626797,-1.000000,-1.000000,-1.000000
482148813.142594,0.039505,-0.004562,-1.023331,0.038053,0.006336,0.000674,0.999276,0.000914,-0.038043,-0.000674,0.999980,0.006336,0.038048,-0.006306,0.999256,0.038043,-0.006336,-0.999256,-0.003391,0.001697,-0.025341,0.010051,-0.000421,0.003683,23.164013,27.626797,-1.000000,-1.000000,-1.000000
482148813.152758,0.039505,-0.004562,-1.023331,0.037914,0.006541,0.000704,0.999281,0.000952,-0.037904,-0.000704,0.999978,0.006541,0.037909,-0.006510,0.999260,0.037904,-0.006541,-0.999260,-0.002412,-0.004018,-0.025200,0.006361,0.000797,0.004650,23.164013,27.626797,-1.000000,-1.000000,-1.000000
482148813.162598,0.037537,-0.006577,-1.024384,0.037817,0.006724,0.000748,0.999285,0.001002,-0.037807,-0.000748,0.999977,0.006724,0.037813,-0.006691,0.999262,0.037807,-0.006724,-0.999262,-0.002315,-0.001852,-0.024267,0.012669,0.003115,0.000247,23.164013,27.626797,-1.000000,-1.000000,-1.000000
482148813.172808,0.040634,-0.004578,-1.026184,0.037817,0.006724,0.000748,0.999285,0.001002,-0.037807,-0.000748,0.999977,0.006724,0.037813,-0.006691,0.999262,0.037807,-0.006724,-0.999262,-0.002315,-0.001852,-0.024267,0.012669,0.003115,0.000247,23.164013,27.626797,-1.000000,-1.000000,-1.000000
482148813.182009,0.034454,-0.006592,-1.021652,0.037857,0.006653,0.000728,0.999283,0.000980,-0.037848,-0.000728,0.999978,0.006653,0.037853,-0.006620,0.999261,0.037848,-0.006653,-0.999261,0.001657,0.002090,-0.024069,-0.001826,0.001983,-0.000491,23.164013,27.626797,-1.000000,-1.000000,-1.000000
482148813.192633,0.036423,-0.004562,-1.020599,0.037921,0.006585,0.000716,0.999281,0.000965,-0.037911,-0.000716,0.999978,0.006585,0.037917,-0.006553,0.999259,0.037911,-0.006585,-0.999259,0.002723,0.002008,-0.026925,0.005353,0.003157,0.001041,23.164013,27.626797,-1.000000,-1.000000,-1.000000
482148813.202768,0.035614,-0.003616,-1.023590,0.037921,0.006585,0.000716,0.999281,0.000965,-0.037911,-0.000716,0.999978,0.006585,0.037917,-0.006553,0.999259,0.037911,-0.006585,-0.999259,0.002723,0.002008,-0.026925,0.005353,0.003157,0.001041,23.164013,27.626797,-1.000000,-1.000000,-1.000000
482148813.212639,0.038651,-0.007584,-1.027222,0.037792,0.006536,0.000718,0.999286,0.000964,-0.037782,-0.000718,0.999978,0.006536,0.037787,-0.006505,0.999265,0.037782,-0.006536,-0.999265,-0.003328,-0.000055,-0.022388,-0.005517,-0.000380,0.000524,23.164013,27.626797,-1.000000,-1.000000,-1.000000
482148813.222645,0.040436,-0.002548,-1.021347,0.037738,0.006527,0.000793,0.999287,0.001038,-0.037728,-0.000793,0.999978,0.006527,0.037734,-0.006493,0.999267,0.037728,-0.006527,-0.999267,-0.001305,0.001965,-0.021333,0.004269,0.004383,-0.001407,23.164013,27.626797,-1.000000,-1.000000,-1.000000
482148813.232624,0.043320,-0.006500,-1.022095,0.037666,0.006469,0.000811,0.999290,0.001054,-0.037656,-0.000811,0.999979,0.006469,0.037662,-0.006433,0.999270,0.037656,-0.006469,-0.999270,-0.002042,0.002852,-0.024320,0.005076,-0.001528,0.005762,23.164013,27.626797,-1.000000,-1.000000,-1.000000
482148813.242615,0.037613,-0.003601,-1.024429,0.037666,0.006469,0.000811,0.999290,0.001054,-0.037656,-0.000811,0.999979,0.006469,0.037662,-0.006433,0.999270,0.037656,-0.006469,-0.999270,-0.002042,0.002852,-0.024320,0.005076,-0.001528,0.005762,23.164013,27.626797,-1.000000,-1.000000,-1.000000
482148813.252606,0.039383,-0.009506,-1.023270,0.037754,0.006382,0.000906,0.999287,0.001146,-0.037745,-0.000906,0.999979,0.006382,0.037751,-0.006343,0.999267,0.037745,-0.006382,-0.999267,0.002691,0.003834,-0.022080,0.000578,0.000828,-0.000377,23.164013,27.626797,-1.000000,-1.000000,-1.000000
482148813.261975,0.039383,-0.009506,-1.023270,0.037891,0.006370,0.000874,0.999282,0.001115,-0.037881,-0.000874,0.999979,0.006370,0.037888,-0.006332,0.999262,0.037881,-0.006370,-0.999262,0.005438,-0.000131,-0.022833,-0.005327,-0.000360,-0.003018,23.164013,27.626797,-1.000000,-1.000000,-1.000000
482148813.272606,0.043228,-0.010452,-1.022049,0.037909,0.006401,0.000852,0.999281,0.001094,-0.037899,-0.000852,0.999979,0.006401,0.037905,-0.006364,0.999261,0.037899,-0.006401,-0.999261,-0.000286,0.002799,-0.025168,0.012855,0.004327,-0.003310,23.164013,27.626797,-1.000000,-1.000000,-1.000000
482148813.282408,0.039261,-0.010483,-1.021301,0.037909,0.006401,0.000852,0.999281,0.001094,-0.037899,-0.000852,0.999979,0.006401,0.037905,-0.006364,0.999261,0.037899,-0.006401,-0.999261,-0.000286,0.002799,-0.025168,0.012855,0.004327,-0.003310,23.164013,27.626797,-1.000000,-1.000000,-1.000000
482148813.292607,0.040451,-0.009521,-1.025162,0.037905,0.006586,0.000828,0.999281,0.001077,-0.037895,-0.000828,0.999978,0.006586,0.037901,-0.006550,0.999260,0.037895,-0.006586,-0.999260,0.001488,-0.002921,-0.024010,0.006686,-0.003981,-0.001170,23.164013,27.626797,-1.000000,-1.000000,-1.000000
482148813.302607,0.041687,-0.005569,-1.028030,0.038052,0.006846,0.000826,0.999276,0.001086,-0.038042,-0.000826,0.999976,0.006846,0.038049,-0.006810,0.999253,0.038042,-0.006846,-0.999253,0.001219,-0.003637,-0.022049,0.001788,0.003213,-0.000346,23.164013,27.626797,-1.000000,-1.000000,-1.000000
482148813.312565,0.038330,-0.008530,-1.021393,0.038052,0.006846,0.000826,0.999276,0.001086,-0.038042,-0.000826,0.999976,0.006846,0.038049,-0.006810,0.999253,0.038042,-0.006846,-0.999253,0.001219,-0.003637,-0.022049,0.001788,0.003213,-0.000346,23.164013,27.626797,-1.000000,-1.000000,-1.000000
482148813.322702,0.040436,-0.006531,-1.023254,0.038120,0.006991,0.000823,0.999273,0.001089,-0.038110,-0.000823,0.999975,0.006990,0.038116,-0.006954,0.999249,0.038110,-0.006990,-0.999249,0.002341,-0.002531,-0.025913,0.006821,0.001968,-0.003592,23.164013,27.626797,-1.000000,-1.000000,-1.000000
482148813.332607,0.035477,-0.004593,-1.021622,0.038196,0.007006,0.000902,0.999270,0.001169,-0.038186,-0.000902,0.999975,0.007006,0.038193,-0.006966,0.999246,0.038186,-0.007006,-0.999246,0.003501,0.001436,-0.028784,0.003935,0.004440,0.004449,23.164013,27.626797,-1.000000,-1.000000,-1.000000
482148813.342659,0.036667,-0.004623,-1.025452,0.038190,0.007058,0.000958,0.999270,0.001227,-0.038180,-0.000958,0.999975,0.007058,0.038188,-0.007016,0.999246,0.038180,-0.007058,-0.999246,0.000150,-0.001472,-0.022147,0.001521,0.000869,0.004371,23.164013,27.626797,-1.000000,-1.000000,-1.000000
482148813.352567,0.040329,-0.004517,-1.020370,0.038190,0.007058,0.000958,0.999270,0.001227,-0.038180,-0.000958,0.999975,0.007058,0.038188,-0.007016,0.999246,0.038180,-0.007058,-0.999246,0.000150,-0.001472,-0.022147,0.001521,0.000869,0.004371,23.164013,27.626797,-1.000000,-1.000000,-1.000000
482148813.362456,0.037613,-0.005600,-1.025375,0.038126,0.006982,0.000946,0.999273,0.001211,-0.038115,-0.000946,0.999975,0.006982,0.038123,-0.006941,0.999249,0.038115,-0.006982,-0.999249,-0.002639,0.002389,-0.022373,0.005617,0.000792,-0.003655,23.164013,27.626797,-1.000000,-1.000000,-1.000000
482148813.372264,0.037613,-0.005600,-1.025375,0.038098,0.006905,0.000947,0.999274,0.001210,-0.038088,-0.000947,0.999976,0.006905,0.038095,-0.006864,0.999251,0.038088,-0.006905,-0.999251,-0.001421,0.002282,-0.026201,-0.004182,0.004434,-0.001863,23.164013,27.626797,-1.000000,-1.000000,-1.000000
482148813.383359,0.036438,-0.007553,-1.022507,0.038117,0.006863,0.000918,0.999273,0.001179,-0.038106,-0.000918,0.999976,0.006863,0.038114,-0.006823,0.999250,0.038106,-0.006863,-0.999250,0.002223,0.002346,-0.021120,-0.000491,0.000828,-0.002798,23.164013,27.626797,-1.000000,-1.000000,-1.000000
482148813.392698,0.036438,-0.007553,-1.022507,0.038117,0.006863,0.000918,0.999273,0.001179,-0.038106,-0.000918,0.999976,0.006863,0.038114,-0.006823,0.999250,0.038106,-0.006863,-0.999250,0.002223,0.002346,-0.021120,-0.000491,0.000828,-0.002798,23.164013,27.626797,-1.000000,-1.000000,-1.000000
482148813.402626,0.040482,-0.008545,-1.025177,0.038071,0.006832,0.000942,0.999275,0.001201,-0.038060,-0.000942,0.999976,0.006831,0.038068,-0.006791,0.999252,0.038060,-0.006831,-0.999252,-0.000448,0.001231,-0.026123,0.002798,-0.001522,0.003279,23.164013,27.626797,-1.000000,-1.000000,-1.000000
482148813.412614,0.034454,-0.006592,-1.021652,0.037992,0.006858,0.000935,0.999278,0.001195,-0.037982,-0.000935,0.999976,0.006858,0.037989,-0.006817,0.999255,0.037982,-0.006858,-0.999255,-0.001544,-0.000695,-0.023252,0.001924,0.002010,-0.002688,23.164013,27.626797,-1.000000,-1.000000,-1.000000
482148813.422654,0.040283,-0.006500,-1.020340,0.037992,0.006858,0.000935,0.999278,0.001195,-0.037982,-0.000935,0.999976,0.006858,0.037989,-0.006817,0.999255,0.037982,-0.006858,-0.999255,-0.001544,-0.000695,-0.023252,0.001924,0.002010,-0.002688,23.164013,27.626797,-1.000000,-1.000000,-1.000000
482148813.432623,0.040283,-0.006500,-1.020340,0.038058,0.006882,0.001006,0.999275,0.001267,-0.038048,-0.001006,0.999976,0.006882,0.038056,-0.006839,0.999252,0.038048,-0.006882,-0.999252,0.002434,-0.001663,-0.025925,-0.001161,0.000933,0.008915,23.164013,27.626797,-1.000000,-1.000000,-1.000000
482148813.442607,0.042221,-0.007446,-1.020218,0.037983,0.006963,0.001070,0.999278,0.001334,-0.037973,-0.001070,0.999975,0.006963,0.037981,-0.006917,0.999255,0.037973,-0.006963,-0.999255,-0.003518,0.000371,-0.022398,0.000381,0.003261,0.003089,23.164013,27.626797,-1.000000,-1.000000,-1.000000
482148813.452560,0.038757,-0.005615,-1.028198,0.038021,0.006975,0.001099,0.999276,0.001363,-0.038011,-0.001099,0.999975,0.006975,0.038020,-0.006928,0.999253,0.038011,-0.006975,-0.999253,0.002272,0.000475,-0.021087,0.003939,-0.001518,0.004513,23.164013,27.626797,-1.000000,-1.000000,-1.000000
482148813.462558,0.041534,-0.007523,-1.026093,0.038021,0.006975,0.001099,0.999276,0.001363,-0.038011,-0.001099,0.999975,0.006975,0.038020,-0.006928,0.999253,0.038011,-0.006975,-0.999253,0.002272,0.000475,-0.021087,0.003939,-0.001518,0.004513,23.164013,27.626797,-1.000000,-1.000000,-1.000000
482148813.472622,0.040649,-0.001602,-1.025253,0.038125,0.007005,0.001134,0.999272,0.001400,-0.038114,-0.001134,0.999975,0.007005,0.038123,-0.006957,0.999249,0.038114,-0.007005,-0.999249,0.004107,-0.000441,-0.020969,0.001589,0.000870,0.003184,23.164013,27.626797,-1.000000,-1.000000,-1.000000
482148813.482278,0.040649,-0.001602,-1.025253,0.038116,0.006995,0.001136,0.999273,0.001402,-0.038106,-0.001136,0.999975,0.006995,0.038115,-0.006946,0.999249,0.038106,-0.006995,-0.999249,0.000652,0.001379,-0.028949,-0.001833,-0.000340,-0.000502,23.164013,27.626797,-1.000000,-1.000000,-1.000000
482148813.492505,0.038437,-0.010529,-1.024277,0.038116,0.006995,0.001136,0.999273,0.001402,-0.038106,-0.001136,0.999975,0.006995,0.038115,-0.006946,0.999249,0.038106,-0.006995,-0.999249,0.000652,0.001379,-0.028949,-0.001833,-0.000340,-0.000502,23.164013,27.626797,-1.000000,-1.000000,-1.000000
482148813.502654,0.041580,-0.003571,-1.025177,0.038175,0.007052,0.001118,0.999270,0.001386,-0.038165,-0.001118,0.999974,0.007052,0.038174,-0.007004,0.999247,0.038165,-0.007052,-0.999247,0.003369,-0.000471,-0.026846,-0.000491,-0.000365,-0.002782,23.164013,27.626797,-1.000000,-1.000000,-1.000000
482148813.512612,0.043457,-0.005524,-1.024048,0.038223,0.006916,0.001119,0.999269,0.001383,-0.038213,-0.001119,0.999975,0.006916,0.038221,-0.006868,0.999246,0.038213,-0.006916,-0.999246,0.002437,0.005314,-0.026008,0.000446,0.000866,0.001950,23.164013,27.626797,-1.000000,-1.000000,-1.000000
482148813.522604,0.037567,-0.005585,-1.024399,0.038297,0.006930,0.001117,0.999266,0.001381,-0.038287,-0.001117,0.999975,0.006929,0.038296,-0.006882,0.999243,0.038287,-0.006929,-0.999243,0.003293,0.003359,-0.025934,0.004136,0.003228,0.000936,23.164013,27.626797,-1.000000,-1.000000,-1.000000
482148813.532606,0.039688,0.002350,-1.023407,0.038297,0.006930,0.001117,0.999266,0.001381,-0.038287,-0.001117,0.999975,0.006929,0.038296,-0.006882,0.999243,0.038287,-0.006929,-0.999243,0.003293,0.003359,-0.025934,0.004136,0.003228,0.000936,23.164013,27.626797,-1.000000,-1.000000,-1.000000
482148813.542610,0.039703,-0.004608,-1.027191,0.038421,0.006877,0.001144,0.999261,0.001407,-0.038411,-0.001144,0.999976,0.006877,0.038420,-0.006828,0.999238,0.038411,-0.006877,-0.999238,0.005046,0.001353,-0.024809,0.000378,0.002072,0.003105,23.164013,27.626797,-1.000000,-1.000000,-1.000000
482148813.552610,0.035385,-0.006561,-1.020630,0.038405,0.006696,0.001196,0.999262,0.001453,-0.038395,-0.001196,0.999977,0.006696,0.038404,-0.006645,0.999240,0.038395,-0.006696,-0.999240,0.001293,0.009046,-0.024167,0.001715,0.003239,0.000810,23.164013,27.626797,-1.000000,-1.000000,-1.000000
482148813.561912,0.041367,-0.008499,-1.023178,0.038405,0.006696,0.001196,0.999262,0.001453,-0.038395,-0.001196,0.999977,0.006696,0.038404,-0.006645,0.999240,0.038395,-0.006696,-0.999240,0.001293,0.009046,-0.024167,0.001715,0.003239,0.000810,23.164013,27.626797,-1.000000,-1.000000,-1.000000
482148813.572796,0.036728,-0.002640,-1.025467,0.038446,0.006668,0.001186,0.999260,0.001442,-0.038436,-0.001186,0.999977,0.006668,0.038444,-0.006617,0.999239,0.038436,-0.006668,-0.999239,0.001253,0.009018,-0.024168,-0.005398,0.004442,-0.001926,23.164013,27.626797,-1.000000,-1.000000,-1.000000
482148813.582610,0.040512,-0.003555,-1.023300,0.038343,0.006658,0.001180,0.999264,0.001435,-0.038332,-0.001180,0.999977,0.006658,0.038341,-0.006608,0.999243,0.038332,-0.006658,-0.999243,-0.002947,0.000096,-0.021387,0.000441,-0.000327,0.001966,23.164013,27.626797,-1.000000,-1.000000,-1.000000
482148813.592584,0.040298,-0.007492,-1.021301,0.038348,0.006705,0.001198,0.999264,0.001455,-0.038337,-0.001198,0.999977,0.006705,0.038346,-0.006654,0.999242,0.038337,-0.006705,-0.999242,0.003029,-0.001794,-0.023936,0.005208,-0.006305,0.003467,23.164013,27.626797,-1.000000,-1.000000,-1.000000
482148813.602505,0.040298,-0.007492,-1.021301,0.038348,0.006705,0.001198,0.999264,0.001455,-0.038337,-0.001198,0.999977,0.006705,0.038346,-0.006654,0.999242,0.038337,-0.006705,-0.999242,0.003029,-0.001794,-0.023936,0.005208,-0.006305,0.003467,23.164013,27.626797,-1.000000,-1.000000,-1.000000
482148813.612618,0.040512,-0.003555,-1.023300,0.038340,0.006639,0.001218,0.999264,0.001471,-0.038330,-0.001218,0.999977,0.006639,0.038338,-0.006588,0.999243,0.038330,-0.006639,-0.999243,-0.001602,0.004000,-0.026224,0.002115,0.003174,-0.006218,23.164013,27.626797,-1.000000,-1.000000,-1.000000
482148813.621756,0.035477,-0.006592,-1.022568,0.038375,0.006590,0.001263,0.999263,0.001514,-0.038365,-0.001263,0.999977,0.006590,0.038374,-0.006536,0.999242,0.038365,-0.006590,-0.999242,0.002147,0.003034,-0.024058,-0.001105,0.002117,0.007727,23.164013,27.626797,-1.000000,-1.000000,-1.000000
482148813.632605,0.036499,-0.005585,-1.022522,0.038401,0.006575,0.001336,0.999262,0.001588,-0.038391,-0.001336,0.999977,0.006575,0.038400,-0.006518,0.999241,0.038391,-0.006575,-0.999241,0.002121,0.003019,-0.024059,0.005135,-0.002713,0.004591,23.164013,27.626797,-1.000000,-1.000000,-1.000000
482148813.642656,0.035355,-0.005569,-1.019669,0.038401,0.006575,0.001336,0.999262,0.001588,-0.038391,-0.001336,0.999977,0.006575,0.038400,-0.006518,0.999241,0.038391,-0.006575,-0.999241,0.002121,0.003019,-0.024059,0.005135,-0.002713,0.004591,23.164013,27.626797,-1.000000,-1.000000,-1.000000
482148813.652614,0.037582,-0.006592,-1.025360,0.038322,0.006615,0.001339,0.999265,0.001592,-0.038311,-0.001339,0.999977,0.006615,0.038321,-0.006559,0.999244,0.038311,-0.006615,-0.999244,-0.002835,0.000023,-0.023324,0.001846,-0.000365,-0.001485,23.164013,27.626797,-1.000000,-1.000000,-1.000000
482148813.661981,0.039337,-0.005524,-1.020401,0.038197,0.006592,0.001376,0.999269,0.001626,-0.038187,-0.001376,0.999977,0.006591,0.038197,-0.006534,0.999249,0.038187,-0.006591,-0.999249,-0.002832,0.001022,-0.020420,0.002784,0.002057,0.003231,23.164013,27.626797,-1.000000,-1.000000,-1.000000
482148813.672643,0.037613,-0.005600,-1.025375,0.038232,0.006624,0.001377,0.999268,0.001630,-0.038222,-0.001377,0.999977,0.006624,0.038232,-0.006567,0.999247,0.038222,-0.006624,-0.999247,-0.002867,0.001055,-0.020421,0.001911,0.003203,-0.002705,23.164013,27.626797,-1.000000,-1.000000,-1.000000
482148813.682565,0.040558,-0.007538,-1.026154,0.038232,0.006624,0.001377,0.999268,0.001630,-0.038222,-0.001377,0.999977,0.006624,0.038232,-0.006567,0.999247,0.038222,-0.006624,-0.999247,-0.002867,0.001055,-0.020421,0.001911,0.003203,-0.002705,23.164013,27.626797,-1.000000,-1.000000,-1.000000
482148813.692632,0.038544,-0.007568,-1.025299,0.038247,0.006687,0.001344,0.999267,0.001599,-0.038237,-0.001344,0.999977,0.006687,0.038246,-0.006631,0.999246,0.038237,-0.006687,-0.999246,0.001101,0.001164,-0.021155,0.011506,0.003172,-0.001031,23.164013,27.626797,-1.000000,-1.000000,-1.000000
482148813.702725,0.038269,-0.006531,-1.019470,0.038204,0.006726,0.001325,0.999269,0.001581,-0.038194,-0.001325,0.999977,0.006726,0.038203,-0.006671,0.999248,0.038194,-0.006726,-0.999248,-0.000581,0.001126,-0.026128,0.004260,-0.002766,-0.001328,23.164013,27.626797,-1.000000,-1.000000,-1.000000
482148813.712063,0.038269,-0.006531,-1.019470,0.038204,0.006726,0.001325,0.999269,0.001581,-0.038194,-0.001325,0.999977,0.006726,0.038203,-0.006671,0.999248,0.038194,-0.006726,-0.999248,-0.000581,0.001126,-0.026128,0.004260,-0.002766,-0.001328,23.164013,27.626797,-1.000000,-1.000000,-1.000000
482148813.722101,0.036499,-0.007553,-1.023483,0.038217,0.006794,0.001394,0.999268,0.001652,-0.038207,-0.001393,0.999976,0.006794,0.038217,-0.006736,0.999247,0.038207,-0.006794,-0.999247,0.000337,-0.000775,-0.026052,-0.002182,0.000904,0.005337,23.164013,27.626797,-1.000000,-1.000000,-1.000000
482148813.732688,0.037613,-0.007568,-1.026321,0.038230,0.006860,0.001380,0.999268,0.001641,-0.038220,-0.001380,0.999976,0.006860,0.038230,-0.006802,0.999246,0.038220,-0.006860,-0.999246,0.000324,-0.000708,-0.026053,0.007950,0.001982,-0.002375,23.164013,27.626797,-1.000000,-1.000000,-1.000000
482148813.742630,0.038330,-0.008530,-1.021393,0.038149,0.006908,0.001422,0.999271,0.001684,-0.038139,-0.001422,0.999975,0.006908,0.038150,-0.006849,0.999249,0.038139,-0.006908,-0.999249,-0.001640,-0.000645,-0.024235,0.001441,0.002080,0.005510,23.164013,27.626797,-1.000000,-1.000000,-1.000000
482148813.752568,0.044312,-0.010452,-1.023926,0.038149,0.006908,0.001422,0.999271,0.001684,-0.038139,-0.001422,0.999975,0.006908,0.038150,-0.006849,0.999249,0.038139,-0.006908,-0.999249,-0.001640,-0.000645,-0.024235,0.001441,0.002080,0.005510,23.164013,27.626797,-1.000000,-1.000000,-1.000000
482148813.762612,0.043350,-0.011459,-1.024963,0.038136,0.006918,0.001418,0.999272,0.001681,-0.038126,-0.001418,0.999975,0.006917,0.038137,-0.006858,0.999249,0.038126,-0.006917,-0.999249,-0.000513,-0.000651,-0.027072,-0.001847,0.003236,-0.000551,23.164013,27.626797,-1.000000,-1.000000,-1.000000
482148813.772567,0.040436,-0.002548,-1.021347,0.038288,0.007026,0.001409,0.999266,0.001677,-0.038278,-0.001409,0.999974,0.007025,0.038289,-0.006966,0.999242,0.038278,-0.007025,-0.999242,0.006034,-0.003427,-0.024683,0.003052,0.005594,-0.001502,23.164013,27.626797,-1.000000,-1.000000,-1.000000
482148813.782627,0.037292,-0.010498,-1.021423,0.038302,0.007008,0.001421,0.999265,0.001688,-0.038291,-0.001421,0.999974,0.007008,0.038302,-0.006949,0.999242,0.038291,-0.007008,-0.999242,0.006020,-0.003444,-0.024684,-0.004388,0.000887,0.001676,23.164013,27.626797,-1.000000,-1.000000,-1.000000
482148813.792672,0.035812,-0.003662,-1.027451,0.038302,0.007008,0.001421,0.999265,0.001688,-0.038291,-0.001421,0.999974,0.007008,0.038302,-0.006949,0.999242,0.038291,-0.007008,-0.999242,0.006020,-0.003444,-0.024684,-0.004388,0.000887,0.001676,23.164013,27.626797,-1.000000,-1.000000,-1.000000
482148813.802625,0.038422,-0.004562,-1.021439,0.038452,0.007043,0.001445,0.999259,0.001714,-0.038441,-0.001445,0.999974,0.007043,0.038452,-0.006982,0.999236,0.038441,-0.007043,-0.999236,0.001995,0.004495,-0.022111,0.002926,0.000848,0.000882,23.164013,27.626797,-1.000000,-1.000000,-1.000000
482148813.812610,0.041382,-0.009491,-1.024124,0.038408,0.007097,0.001473,0.999261,0.001745,-0.038398,-0.001473,0.999974,0.007097,0.038409,-0.007035,0.999237,0.038398,-0.007097,-0.999237,-0.001105,-0.003401,-0.022186,0.001385,-0.001482,0.006708,23.164013,27.626797,-1.000000,-1.000000,-1.000000
482148813.822758,0.041382,-0.009491,-1.024124,0.038408,0.007097,0.001473,0.999261,0.001745,-0.038398,-0.001473,0.999974,0.007097,0.038409,-0.007035,0.999237,0.038398,-0.007097,-0.999237,-0.001105,-0.003401,-0.022186,0.001385,-0.001482,0.006708,23.164013,27.626797,-1.000000,-1.000000,-1.000000
482148813.832602,0.030380,-0.010574,-1.020874,0.038351,0.007068,0.001505,0.999263,0.001774,-0.038340,-0.001505,0.999974,0.007068,0.038352,-0.007005,0.999240,0.038340,-0.007068,-0.999240,0.000081,0.002506,-0.022199,0.006749,0.003186,-0.002475,23.164013,27.626797,-1.000000,-1.000000,-1.000000
482148813.842657,0.038452,-0.005569,-1.022400,0.038369,0.007112,0.001517,0.999262,0.001789,-0.038359,-0.001517,0.999974,0.007112,0.038371,-0.007049,0.999239,0.038359,-0.007112,-0.999239,0.000063,0.002550,-0.022200,0.003999,-0.000332,0.003303,23.164013,27.626797,-1.000000,-1.000000,-1.000000
482148813.852634,0.040375,-0.006531,-1.022278,0.038254,0.007232,0.001532,0.999267,0.001807,-0.038244,-0.001532,0.999973,0.007232,0.038256,-0.007168,0.999242,0.038244,-0.007232,-0.999242,-0.007864,-0.003342,-0.021632,0.001852,0.002021,-0.001539,23.164013,27.626797,-1.000000,-1.000000,-1.000000
482148813.861838,0.037842,-0.004639,-1.029251,0.038254,0.007232,0.001532,0.999267,0.001807,-0.038244,-0.001532,0.999973,0.007232,0.038256,-0.007168,0.999242,0.038244,-0.007232,-0.999242,-0.007864,-0.003342,-0.021632,0.001852,0.002021,-0.001539,23.164013,27.626797,-1.000000,-1.000000,-1.000000
482148813.872618,0.036575,-0.006592,-1.024445,0.038254,0.007223,0.001517,0.999267,0.001792,-0.038244,-0.001517,0.999973,0.007223,0.038256,-0.007160,0.999242,0.038244,-0.007223,-0.999242,0.000209,0.001654,-0.023158,0.003060,0.000822,-0.001460,23.164013,27.626797,-1.000000,-1.000000,-1.000000
482148813.882609,0.040482,-0.006546,-1.024216,0.038295,0.007211,0.001472,0.999265,0.001747,-0.038284,-0.001472,0.999973,0.007211,0.038296,-0.007149,0.999241,0.038284,-0.007211,-0.999241,-0.000443,0.002572,-0.030010,0.002924,0.000843,0.000882,23.164013,27.626797,-1.000000,-1.000000,-1.000000
482148813.892621,0.037384,-0.006546,-1.021469,0.038308,0.007282,0.001490,0.999265,0.001768,-0.038297,-0.001490,0.999972,0.007282,0.038309,-0.007220,0.999240,0.038297,-0.007282,-0.999240,-0.000456,0.002643,-0.030011,0.006548,0.002021,0.001055,23.164013,27.626797,-1.000000,-1.000000,-1.000000
482148813.902578,0.046158,-0.008423,-1.020935,0.038308,0.007282,0.001490,0.999265,0.001768,-0.038297,-0.001490,0.999972,0.007282,0.038309,-0.007220,0.999240,0.038297,-0.007282,-0.999240,-0.000456,0.002643,-0.030011,0.006548,0.002021,0.001055,23.164013,27.626797,-1.000000,-1.000000,-1.000000
482148813.912609,0.036377,-0.006546,-1.020569,0.038365,0.007290,0.001482,0.999263,0.001760,-0.038355,-0.001482,0.999972,0.007290,0.038366,-0.007228,0.999238,0.038355,-0.007290,-0.999238,0.002127,0.000744,-0.024978,0.005541,0.000800,-0.002506,23.164013,27.626797,-1.000000,-1.000000,-1.000000
482148813.922676,0.044266,-0.010437,-1.022964,0.038309,0.007294,0.001484,0.999265,0.001762,-0.038299,-0.001484,0.999972,0.007294,0.038310,-0.007231,0.999240,0.038299,-0.007294,-0.999240,-0.000915,0.000748,-0.022229,0.001783,-0.001551,-0.000320,23.164013,27.626797,-1.000000,-1.000000,-1.000000
482148813.932620,0.044266,-0.010437,-1.022964,0.038309,0.007294,0.001484,0.999265,0.001762,-0.038299,-0.001484,0.999972,0.007294,0.038310,-0.007231,0.999240,0.038299,-0.007294,-0.999240,-0.000915,0.000748,-0.022229,0.001783,-0.001551,-0.000320,23.164013,27.626797,-1.000000,-1.000000,-1.000000
482148813.942588,0.038300,-0.007507,-1.020447,0.038379,0.007343,0.001481,0.999262,0.001762,-0.038369,-0.001481,0.999972,0.007343,0.038381,-0.007281,0.999237,0.038369,-0.007343,-0.999237,-0.001992,0.000797,-0.021332,0.002915,-0.003932,0.000925,23.164013,27.626797,-1.000000,-1.000000,-1.000000
482148813.952634,0.038559,-0.005585,-1.024338,0.038370,0.007386,0.001499,0.999262,0.001782,-0.038360,-0.001499,0.999972,0.007386,0.038372,-0.007323,0.999237,0.038360,-0.007386,-0.999237,-0.001983,0.000840,-0.021332,0.003921,-0.000325,0.004453,23.164013,27.626797,-1.000000,-1.000000,-1.000000
482148813.962719,0.040329,-0.006516,-1.021301,0.038487,0.007506,0.001491,0.999258,0.001779,-0.038477,-0.001491,0.999971,0.007506,0.038489,-0.007443,0.999231,0.038477,-0.007506,-0.999231,-0.000177,-0.000002,-0.021215,-0.001850,0.000853,-0.000562,23.164013,27.626797,-1.000000,-1.000000,-1.000000
482148813.972892,0.036652,-0.003616,-1.024490,0.038487,0.007506,0.001491,0.999258,0.001779,-0.038477,-0.001491,0.999971,0.007506,0.038489,-0.007443,0.999231,0.038477,-0.007506,-0.999231,-0.000177,-0.000002,-0.021215,-0.001850,0.000853,-0.000562,23.164013,27.626797,-1.000000,-1.000000,-1.000000
482148813.982592,0.040436,-0.010513,-1.025146,0.038494,0.007469,0.001508,0.999258,0.001794,-0.038483,-0.001508,0.999971,0.007469,0.038495,-0.007405,0.999231,0.038483,-0.007469,-0.999231,0.000076,0.001884,-0.025106,0.001638,0.003246,0.001937,23.164013,27.626797,-1.000000,-1.000000,-1.000000
482148813.992617,0.039383,-0.005539,-1.021362,0.038518,0.007551,0.001512,0.999257,0.001801,-0.038507,-0.001512,0.999970,0.007551,0.038519,-0.007487,0.999230,0.038507,-0.007551,-0.999230,0.001822,0.001035,-0.022071,0.007744,0.003210,0.001080,23.164013,27.626797,-1.000000,-1.000000,-1.000000
482148814.002817,0.039673,-0.010559,-1.029053,0.038497,0.007485,0.001535,0.999257,0.001822,-0.038486,-0.001535,0.999971,0.007485,0.038499,-0.007420,0.999231,0.038486,-0.007485,-0.999231,-0.001835,0.003868,-0.025259,-0.001854,0.005626,-0.000626,23.164013,27.626797,-1.000000,-1.000000,-1.000000
482148814.012708,0.034637,-0.003632,-1.023651,0.038497,0.007485,0.001535,0.999257,0.001822,-0.038486,-0.001535,0.999971,0.007485,0.038499,-0.007420,0.999231,0.038486,-0.007485,-0.999231,-0.001835,0.003868,-0.025259,-0.001854,0.005626,-0.000626,23.164013,27.626797,-1.000000,-1.000000,-1.000000
482148814.022607,0.037155,-0.005508,-1.016647,0.038520,0.007558,0.001484,0.999257,0.001774,-0.038509,-0.001484,0.999970,0.007558,0.038522,-0.007495,0.999230,0.038509,-0.007558,-0.999230,0.000874,0.002019,-0.022133,0.000363,-0.001513,0.003109,23.164013,27.626797,-1.000000,-1.000000,-1.000000
482148814.032778,0.037155,-0.005508,-1.016647,0.038511,0.007678,0.001486,0.999257,0.001781,-0.038501,-0.001486,0.999969,0.007678,0.038513,-0.007615,0.999229,0.038501,-0.007678,-0.999229,0.001172,-0.002881,-0.029824,0.009154,-0.002795,-0.002291,23.164013,27.626797,-1.000000,-1.000000,-1.000000
482148814.042613,0.040344,-0.010483,-1.023209,0.038511,0.007678,0.001486,0.999257,0.001781,-0.038501,-0.001486,0.999969,0.007678,0.038513,-0.007615,0.999229,0.038501,-0.007678,-0.999229,0.001172,-0.002881,-0.029824,0.009154,-0.002795,-0.002291,23.164013,27.626797,-1.000000,-1.000000,-1.000000
482148814.052617,0.038498,-0.007553,-1.024323,0.038454,0.007698,0.001555,0.999259,0.001850,-0.038444,-0.001555,0.999969,0.007698,0.038457,-0.007632,0.999231,0.038444,-0.007698,-0.999231,-0.003806,0.004066,-0.024420,0.011366,0.001999,0.001285,23.164013,27.626797,-1.000000,-1.000000,-1.000000
482148814.062638,0.038406,-0.003555,-1.020493,0.038418,0.007668,0.001535,0.999260,0.001828,-0.038407,-0.001535,0.999969,0.007668,0.038420,-0.007603,0.999233,0.038407,-0.007668,-0.999233,-0.001252,0.002160,-0.017415,0.002038,-0.000401,-0.005043,23.164013,27.626797,-1.000000,-1.000000,-1.000000
482148814.072617,0.042252,-0.010452,-1.022110,0.038446,0.007825,0.001598,0.999259,0.001897,-0.038436,-0.001598,0.999968,0.007825,0.038449,-0.007758,0.999230,0.038436,-0.007825,-0.999230,0.000062,0.000272,-0.025092,0.002691,0.003257,0.004319,23.164013,27.626797,-1.000000,-1.000000,-1.000000
482148814.082620,0.034409,-0.006577,-1.020691,0.038446,0.007825,0.001598,0.999259,0.001897,-0.038436,-0.001598,0.999968,0.007825,0.038449,-0.007758,0.999230,0.038436,-0.007825,-0.999230,0.000062,0.000272,-0.025092,0.002691,0.003257,0.004319,23.164013,27.626797,-1.000000,-1.000000,-1.000000
482148814.092449,0.039658,-0.006592,-1.027161,0.038442,0.007721,0.001614,0.999259,0.001910,-0.038432,-0.001614,0.999969,0.007721,0.038445,-0.007653,0.999231,0.038432,-0.007721,-0.999231,-0.000026,0.004165,-0.021261,-0.000664,-0.001544,-0.000492,23.164013,27.626797,-1.000000,-1.000000,-1.000000
482148814.102561,0.034485,-0.003601,-1.020737,0.038515,0.007841,0.001601,0.999257,0.001901,-0.038504,-0.001601,0.999968,0.007841,0.038518,-0.007774,0.999228,0.038504,-0.007841,-0.999228,0.003747,-0.002611,-0.022882,0.003899,0.000865,0.004413,23.164013,27.626797,-1.000000,-1.000000,-1.000000
482148814.112690,0.039368,-0.007523,-1.022324,0.038515,0.007841,0.001601,0.999257,0.001901,-0.038504,-0.001601,0.999968,0.007841,0.038518,-0.007774,0.999228,0.038504,-0.007841,-0.999228,0.003747,-0.002611,-0.022882,0.003899,0.000865,0.004413,23.164013,27.626797,-1.000000,-1.000000,-1.000000
482148814.122637,0.039307,-0.006516,-1.020386,0.038420,0.007807,0.001592,0.999260,0.001890,-0.038410,-0.001591,0.999968,0.007807,0.038423,-0.007740,0.999232,0.038410,-0.007807,-0.999232,-0.004001,0.001230,-0.021459,-0.002947,0.000831,-0.002992,23.164013,27.626797,-1.000000,-1.000000,-1.000000
482148814.132566,0.039490,-0.005554,-1.023315,0.038334,0.007791,0.001542,0.999264,0.001839,-0.038324,-0.001542,0.999968,0.007791,0.038337,-0.007726,0.999235,0.038324,-0.007791,-0.999235,-0.003839,0.004190,-0.021502,0.004365,0.001982,-0.003801,23.164013,27.626797,-1.000000,-1.000000,-1.000000
482148814.142624,0.039490,-0.005554,-1.023315,0.038350,0.007760,0.001521,0.999263,0.001817,-0.038340,-0.001521,0.999969,0.007759,0.038353,-0.007695,0.999235,0.038340,-0.007759,-0.999235,0.001028,0.000237,-0.023089,-0.004290,-0.000337,-0.000696,23.164013,27.626797,-1.000000,-1.000000,-1.000000
482148814.152546,0.041306,-0.006500,-1.021240,0.038350,0.007760,0.001521,0.999263,0.001817,-0.038340,-0.001521,0.999969,0.007759,0.038353,-0.007695,0.999235,0.038340,-0.007759,-0.999235,0.001028,0.000237,-0.023089,-0.004290,-0.000337,-0.000696,23.164013,27.626797,-1.000000,-1.000000,-1.000000
482148814.161893,0.038605,-0.005600,-1.025314,0.038374,0.007732,0.001458,0.999262,0.001753,-0.038364,-0.001458,0.999969,0.007731,0.038376,-0.007670,0.999234,0.038364,-0.007731,-0.999234,0.000943,0.001216,-0.021152,0.005774,0.001946,-0.007253,23.164013,27.626797,-1.000000,-1.000000,-1.000000
482148814.172527,0.034225,-0.003555,-1.015884,0.038408,0.007718,0.001453,0.999261,0.001748,-0.038397,-0.001453,0.999969,0.007718,0.038410,-0.007656,0.999233,0.038397,-0.007718,-0.999233,0.001092,0.002164,-0.024083,0.005370,0.004396,-0.000257,23.164013,27.626797,-1.000000,-1.000000,-1.000000
482148814.182653,0.036636,-0.008591,-1.026367,0.038490,0.007734,0.001391,0.999258,0.001687,-0.038480,-0.001391,0.999969,0.007734,0.038491,-0.007675,0.999229,0.038480,-0.007734,-0.999229,0.000125,0.002134,-0.026085,0.005370,0.000816,-0.000210,23.164013,27.626797,-1.000000,-1.000000,-1.000000
482148814.192734,0.035706,-0.007614,-1.027405,0.038490,0.007734,0.001391,0.999258,0.001687,-0.038480,-0.001391,0.999969,0.007734,0.038491,-0.007675,0.999229,0.038480,-0.007734,-0.999229,0.000125,0.002134,-0.026085,0.005370,0.000816,-0.000210,23.164013,27.626797,-1.000000,-1.000000,-1.000000
482148814.202612,0.041626,-0.007538,-1.028015,0.038418,0.007693,0.001393,0.999261,0.001687,-0.038408,-0.001393,0.999969,0.007693,0.038419,-0.007633,0.999233,0.038408,-0.007693,-0.999233,-0.004182,0.004137,-0.016652,-0.000671,0.004421,-0.000571,23.164013,27.626797,-1.000000,-1.000000,-1.000000
482148814.212501,0.039322,-0.007507,-1.021347,0.038396,0.007721,0.001417,0.999262,0.001712,-0.038385,-0.001416,0.999969,0.007721,0.038397,-0.007661,0.999233,0.038385,-0.007721,-0.999233,-0.001749,-0.000870,-0.027134,-0.000870,-0.001516,0.003022,23.164013,27.626797,-1.000000,-1.000000,-1.000000
482148814.222903,0.040634,-0.004578,-1.026184,0.038396,0.007721,0.001417,0.999262,0.001712,-0.038385,-0.001416,0.999969,0.007721,0.038397,-0.007661,0.999233,0.038385,-0.007721,-0.999233,-0.001749,-0.000870,-0.027134,-0.000870,-0.001516,0.003022,23.164013,27.626797,-1.000000,-1.000000,-1.000000
482148814.232797,0.042328,-0.005493,-1.021194,0.038309,0.007708,0.001418,0.999265,0.001712,-0.038298,-0.001418,0.999969,0.007708,0.038310,-0.007648,0.999237,0.038298,-0.007708,-0.999237,-0.002592,0.000094,-0.028168,0.000447,-0.003934,0.000744,23.164013,27.626797,-1.000000,-1.000000,-1.000000
482148814.242227,0.042328,-0.005493,-1.021194,0.038423,0.007795,0.001420,0.999260,0.001718,-0.038413,-0.001419,0.999969,0.007795,0.038425,-0.007735,0.999232,0.038413,-0.007795,-0.999232,0.000909,0.000288,-0.022115,0.005343,0.004390,-0.000288,23.164013,27.626797,-1.000000,-1.000000,-1.000000
482148814.252659,0.037369,-0.005539,-1.020523,0.038448,0.007755,0.001437,0.999260,0.001734,-0.038437,-0.001437,0.999969,0.007755,0.038450,-0.007694,0.999231,0.038437,-0.007755,-0.999231,0.002197,0.003177,-0.026953,0.004069,-0.002755,0.000917,23.164013,27.626797,-1.000000,-1.000000,-1.000000
482148814.262658,0.040283,-0.010483,-1.022232,0.038448,0.007755,0.001437,0.999260,0.001734,-0.038437,-0.001437,0.999969,0.007755,0.038450,-0.007694,0.999231,0.038437,-0.007755,-0.999231,0.002197,0.003177,-0.026953,0.004069,-0.002755,0.000917,23.164013,27.626797,-1.000000,-1.000000,-1.000000
482148814.272618,0.037491,-0.006561,-1.023422,0.038505,0.007810,0.001482,0.999257,0.001782,-0.038495,-0.001482,0.999968,0.007810,0.038507,-0.007747,0.999228,0.038495,-0.007810,-0.999228,0.003833,0.002317,-0.021966,0.002726,-0.001535,0.003180,23.164013,27.626797,-1.000000,-1.000000,-1.000000
482148814.282607,0.042404,-0.010483,-1.025024,0.038459,0.007778,0.001473,0.999259,0.001771,-0.038448,-0.001473,0.999969,0.007778,0.038461,-0.007716,0.999230,0.038448,-0.007778,-0.999230,-0.001079,0.002239,-0.021293,-0.001973,0.000851,0.000554,23.164013,27.626797,-1.000000,-1.000000,-1.000000
482148814.292612,0.035461,-0.005585,-1.021606,0.038461,0.007872,0.001561,0.999259,0.001863,-0.038450,-0.001561,0.999968,0.007872,0.038464,-0.007806,0.999229,0.038450,-0.007872,-0.999229,-0.000960,0.001311,-0.024193,0.005007,0.000862,0.005616,23.164013,27.626797,-1.000000,-1.000000,-1.000000
482148814.302546,0.041458,-0.008530,-1.025116,0.038461,0.007872,0.001561,0.999259,0.001863,-0.038450,-0.001561,0.999968,0.007872,0.038464,-0.007806,0.999229,0.038450,-0.007872,-0.999229,-0.000960,0.001311,-0.024193,0.005007,0.000862,0.005616,23.164013,27.626797,-1.000000,-1.000000,-1.000000
482148814.312627,0.039505,-0.004562,-1.023331,0.038531,0.007956,0.001546,0.999256,0.001851,-0.038520,-0.001546,0.999967,0.007956,0.038534,-0.007891,0.999226,0.038520,-0.007956,-0.999226,0.003884,-0.002527,-0.025798,0.003060,0.001993,-0.002724,23.164013,27.626797,-1.000000,-1.000000,-1.000000
482148814.322612,0.040482,-0.008545,-1.025177,0.038520,0.007900,0.001520,0.999257,0.001823,-0.038509,-0.001520,0.999968,0.007899,0.038523,-0.007835,0.999227,0.038509,-0.007899,-0.999227,-0.003048,0.002315,-0.022379,-0.003047,0.002028,-0.001867,23.164013,27.626797,-1.000000,-1.000000,-1.000000
482148814.332590,0.038361,-0.005539,-1.020462,0.038520,0.007900,0.001520,0.999257,0.001823,-0.038509,-0.001520,0.999968,0.007899,0.038523,-0.007835,0.999227,0.038509,-0.007899,-0.999227,-0.003048,0.002315,-0.022379,-0.003047,0.002028,-0.001867,23.164013,27.626797,-1.000000,-1.000000,-1.000000
482148814.342603,0.039505,-0.008560,-1.025223,0.038576,0.007934,0.001520,0.999254,0.001825,-0.038566,-0.001520,0.999967,0.007934,0.038579,-0.007870,0.999225,0.038566,-0.007934,-0.999225,0.002893,-0.000595,-0.025891,0.002926,0.002013,-0.000382,23.164013,27.626797,-1.000000,-1.000000,-1.000000
482148814.353377,0.039505,-0.008560,-1.025223,0.038593,0.007883,0.001527,0.999254,0.001830,-0.038582,-0.001527,0.999968,0.007883,0.038595,-0.007818,0.999224,0.038582,-0.007883,-0.999224,0.001899,-0.000662,-0.025953,-0.002308,-0.000290,0.006426,23.164013,27.626797,-1.000000,-1.000000,-1.000000
482148814.362609,0.035431,-0.004578,-1.020660,0.038581,0.007828,0.001539,0.999254,0.001840,-0.038570,-0.001539,0.999968,0.007828,0.038583,-0.007763,0.999225,0.038570,-0.007828,-0.999225,-0.000209,0.002289,-0.021237,0.001716,0.002019,-0.000445,23.164013,27.626797,-1.000000,-1.000000,-1.000000
482148814.372620,0.045212,-0.005447,-1.020050,0.038581,0.007828,0.001539,0.999254,0.001840,-0.038570,-0.001539,0.999968,0.007828,0.038583,-0.007763,0.999225,0.038570,-0.007828,-0.999225,-0.000209,0.002289,-0.021237,0.001716,0.002019,-0.000445,23.164013,27.626797,-1.000000,-1.000000,-1.000000
482148814.382622,0.034561,-0.002625,-1.021698,0.038583,0.007891,0.001508,0.999254,0.001811,-0.038572,-0.001508,0.999968,0.007891,0.038586,-0.007827,0.999225,0.038572,-0.007891,-0.999225,0.000933,-0.000669,-0.025998,-0.003211,-0.001538,0.000491,23.164013,27.626797,-1.000000,-1.000000,-1.000000
482148814.392628,0.038330,-0.008530,-1.021393,0.038476,0.007810,0.001547,0.999258,0.001847,-0.038465,-0.001547,0.999968,0.007810,0.038478,-0.007745,0.999229,0.038465,-0.007810,-0.999229,-0.003034,0.003233,-0.021431,0.000010,-0.002684,0.007723,23.164013,27.626797,-1.000000,-1.000000,-1.000000
482148814.402651,0.038422,-0.006561,-1.022385,0.038523,0.007679,0.001564,0.999256,0.001859,-0.038512,-0.001564,0.999969,0.007679,0.038525,-0.007613,0.999229,0.038512,-0.007679,-0.999229,-0.003951,0.005055,-0.022469,0.002757,0.002027,0.001929,23.164013,27.626797,-1.000000,-1.000000,-1.000000
482148814.412615,0.038544,-0.007568,-1.025299,0.038523,0.007679,0.001564,0.999256,0.001859,-0.038512,-0.001564,0.999969,0.007679,0.038525,-0.007613,0.999229,0.038512,-0.007679,-0.999229,-0.003951,0.005055,-0.022469,0.002757,0.002027,0.001929,23.164013,27.626797,-1.000000,-1.000000,-1.000000
482148814.422618,0.042252,-0.008469,-1.021164,0.038548,0.007713,0.001581,0.999255,0.001877,-0.038537,-0.001580,0.999969,0.007713,0.038550,-0.007646,0.999227,0.038537,-0.007713,-0.999227,-0.000207,-0.000817,-0.022165,0.002690,0.002037,0.003099,23.164013,27.626797,-1.000000,-1.000000,-1.000000
482148814.432585,0.036575,-0.004593,-1.023514,0.038567,0.007754,0.001625,0.999255,0.001923,-0.038557,-0.001625,0.999969,0.007753,0.038570,-0.007685,0.999226,0.038557,-0.007753,-0.999226,-0.000013,0.000185,-0.026073,0.002690,0.002037,0.003099,23.164013,27.626797,-1.000000,-1.000000,-1.000000
482148814.442570,0.042358,-0.008484,-1.023117,0.038567,0.007754,0.001625,0.999255,0.001923,-0.038557,-0.001625,0.999969,0.007753,0.038570,-0.007685,0.999226,0.038557,-0.007753,-0.999226,-0.000013,0.000185,-0.026073,0.002690,0.002037,0.003099,23.164013,27.626797,-1.000000,-1.000000,-1.000000
482148814.452626,0.038467,-0.004578,-1.022415,0.038569,0.007791,0.001610,0.999255,0.001909,-0.038559,-0.001610,0.999968,0.007791,0.038572,-0.007723,0.999226,0.038559,-0.007791,-0.999226,-0.000015,0.000223,-0.026073,0.004166,0.000796,-0.001507,23.164013,27.626797,-1.000000,-1.000000,-1.000000
482148814.461730,0.038467,-0.004578,-1.022415,0.038609,0.007849,0.001617,0.999253,0.001919,-0.038598,-0.001617,0.999968,0.007849,0.038612,-0.007781,0.999224,0.038598,-0.007849,-0.999224,-0.002023,0.003256,-0.024290,0.006447,0.002001,0.000945,23.164013,27.626797,-1.000000,-1.000000,-1.000000
482148814.472718,0.035568,-0.005600,-1.023560,0.038671,0.007845,0.001655,0.999250,0.001957,-0.038661,-0.001655,0.999968,0.007845,0.038675,-0.007775,0.999222,0.038661,-0.007845,-0.999222,0.003698,-0.000639,-0.023895,0.001214,0.000892,0.007737,23.164013,27.626797,-1.000000,-1.000000,-1.000000
482148814.482698,0.038391,-0.010513,-1.023315,0.038671,0.007845,0.001655,0.999250,0.001957,-0.038661,-0.001655,0.999968,0.007845,0.038675,-0.007775,0.999222,0.038661,-0.007845,-0.999222,0.003698,-0.000639,-0.023895,0.001214,0.000892,0.007737,23.164013,27.626797,-1.000000,-1.000000,-1.000000
482148814.492661,0.038483,-0.008560,-1.024307,0.038626,0.007868,0.001620,0.999252,0.001922,-0.038615,-0.001620,0.999968,0.007868,0.038629,-0.007799,0.999223,0.038615,-0.007868,-0.999223,-0.003047,0.002268,-0.024336,0.007921,0.003147,-0.003693,23.164013,27.626797,-1.000000,-1.000000,-1.000000
482148814.502613,0.038605,-0.005600,-1.025314,0.038612,0.007883,0.001642,0.999253,0.001945,-0.038601,-0.001642,0.999968,0.007882,0.038615,-0.007813,0.999224,0.038601,-0.007882,-0.999224,-0.003033,0.002283,-0.024336,-0.003283,-0.002723,0.001678,23.164013,27.626797,-1.000000,-1.000000,-1.000000
482148814.512622,0.039612,-0.008575,-1.027145,0.038618,0.007941,0.001648,0.999253,0.001953,-0.038607,-0.001648,0.999967,0.007941,0.038621,-0.007871,0.999223,0.038607,-0.007941,-0.999223,-0.000124,-0.000620,-0.025084,0.003828,0.005622,0.004286,23.164013,27.626797,-1.000000,-1.000000,-1.000000
482148814.522576,0.034332,-0.009537,-1.020660,0.038618,0.007941,0.001648,0.999253,0.001953,-0.038607,-0.001648,0.999967,0.007941,0.038621,-0.007871,0.999223,0.038607,-0.007941,-0.999223,-0.000124,-0.000620,-0.025084,0.003828,0.005622,0.004286,23.164013,27.626797,-1.000000,-1.000000,-1.000000
482148814.532613,0.041458,-0.008530,-1.025116,0.038649,0.007869,0.001599,0.999251,0.001902,-0.038639,-0.001599,0.999968,0.007869,0.038652,-0.007801,0.999222,0.038639,-0.007869,-0.999222,-0.000034,0.002269,-0.026092,-0.002817,0.006751,-0.006648,23.164013,27.626797,-1.000000,-1.000000,-1.000000
482148814.542608,0.042023,-0.005432,-1.015381,0.038668,0.007830,0.001648,0.999251,0.001949,-0.038657,-0.001648,0.999968,0.007830,0.038671,-0.007761,0.999222,0.038657,-0.007830,-0.999222,0.000954,-0.000745,-0.027924,-0.004358,0.002035,-0.000792,23.164013,27.626797,-1.000000,-1.000000,-1.000000
482148814.552547,0.039474,-0.009537,-1.025208,0.038668,0.007830,0.001648,0.999251,0.001949,-0.038657,-0.001648,0.999968,0.007830,0.038671,-0.007761,0.999222,0.038657,-0.007830,-0.999222,0.000954,-0.000745,-0.027924,-0.004358,0.002035,-0.000792,23.164013,27.626797,-1.000000,-1.000000,-1.000000
482148814.562603,0.039612,-0.006577,-1.026199,0.038565,0.007897,0.001676,0.999255,0.001980,-0.038554,-0.001676,0.999967,0.007897,0.038569,-0.007826,0.999225,0.038554,-0.007897,-0.999225,-0.004222,-0.001640,-0.021435,0.001481,-0.001541,0.003084,23.164013,27.626797,-1.000000,-1.000000,-1.000000
482148814.572300,0.039612,-0.006577,-1.026199,0.038681,0.007924,0.001629,0.999250,0.001934,-0.038670,-0.001629,0.999967,0.007924,0.038684,-0.007855,0.999221,0.038670,-0.007924,-0.999221,0.003353,0.002492,-0.016160,0.004163,0.001988,-0.001523,23.164013,27.626797,-1.000000,-1.000000,-1.000000
482148814.582519,0.041809,-0.004608,-1.029984,0.038722,0.007994,0.001629,0.999249,0.001937,-0.038711,-0.001629,0.999967,0.007994,0.038726,-0.007925,0.999218,0.038711,-0.007994,-0.999218,0.000763,-0.001543,-0.025989,0.005304,0.003187,-0.000305,23.164013,27.626797,-1.000000,-1.000000,-1.000000
482148814.592577,0.039597,-0.004593,-1.025269,0.038722,0.007994,0.001629,0.999249,0.001937,-0.038711,-0.001629,0.999967,0.007994,0.038726,-0.007925,0.999218,0.038711,-0.007994,-0.999218,0.000763,-0.001543,-0.025989,0.005304,0.003187,-0.000305,23.164013,27.626797,-1.000000,-1.000000,-1.000000
482148814.602513,0.036423,-0.008560,-1.022491,0.038768,0.007998,0.001684,0.999247,0.001993,-0.038757,-0.001684,0.999967,0.007998,0.038771,-0.007927,0.999217,0.038757,-0.007998,-0.999217,0.000855,0.001421,-0.026983,-0.000868,-0.001540,0.001787,23.164013,27.626797,-1.000000,-1.000000,-1.000000
482148814.612584,0.038483,-0.006561,-1.023361,0.038783,0.007903,0.001743,0.999246,0.002048,-0.038773,-0.001743,0.999967,0.007903,0.038787,-0.007830,0.999217,0.038773,-0.007903,-0.999217,0.003037,0.003295,-0.030767,-0.003888,0.000952,0.012171,23.164013,27.626797,-1.000000,-1.000000,-1.000000
482148814.622258,0.040390,-0.008514,-1.023239,0.038722,0.007948,0.001746,0.999248,0.002052,-0.038711,-0.001746,0.999967,0.007948,0.038726,-0.007875,0.999219,0.038711,-0.007948,-0.999219,-0.002289,-0.000612,-0.023273,0.008120,0.001920,-0.007191,23.164013,27.626797,-1.000000,-1.000000,-1.000000
482148814.632553,0.034729,-0.003662,-1.025589,0.038722,0.007948,0.001746,0.999248,0.002052,-0.038711,-0.001746,0.999967,0.007948,0.038726,-0.007875,0.999219,0.038711,-0.007948,-0.999219,-0.002289,-0.000612,-0.023273,0.008120,0.001920,-0.007191,23.164013,27.626797,-1.000000,-1.000000,-1.000000
482148814.642580,0.038712,-0.005615,-1.027237,0.038723,0.007934,0.001725,0.999248,0.002031,-0.038712,-0.001725,0.999967,0.007934,0.038727,-0.007861,0.999219,0.038712,-0.007934,-0.999219,-0.000230,0.001372,-0.024142,0.002954,-0.000395,-0.001554,23.164013,27.626797,-1.000000,-1.000000,-1.000000
482148814.652581,0.037262,-0.009491,-1.020477,0.038641,0.007946,0.001744,0.999251,0.002050,-0.038630,-0.001744,0.999967,0.007946,0.038645,-0.007873,0.999222,0.038630,-0.007946,-0.999222,-0.003901,0.004284,-0.026367,0.009865,-0.001567,0.004695,23.164013,27.626797,-1.000000,-1.000000,-1.000000
482148814.661947,0.038452,-0.003571,-1.021454,0.038641,0.007946,0.001744,0.999251,0.002050,-0.038630,-0.001744,0.999967,0.007946,0.038645,-0.007873,0.999222,0.038630,-0.007946,-0.999222,-0.003901,0.004284,-0.026367,0.009865,-0.001567,0.004695,23.164013,27.626797,-1.000000,-1.000000,-1.000000
482148814.672525,0.037354,-0.007523,-1.021469,0.038621,0.007989,0.001745,0.999252,0.002052,-0.038610,-0.001745,0.999967,0.007989,0.038625,-0.007916,0.999222,0.038610,-0.007989,-0.999222,-0.003881,0.004327,-0.026367,0.004095,-0.003971,-0.000272,23.164013,27.626797,-1.000000,-1.000000,-1.000000
482148814.681659,0.037354,-0.007523,-1.021469,0.038576,0.008036,0.001715,0.999254,0.002024,-0.038566,-0.001715,0.999966,0.008036,0.038580,-0.007963,0.999224,0.038566,-0.008036,-0.999224,-0.001304,-0.001455,-0.021254,0.005301,0.001991,-0.000289,23.164013,27.626797,-1.000000,-1.000000,-1.000000
482148814.692532,0.035431,-0.004578,-1.020660,0.038582,0.007933,0.001758,0.999254,0.002063,-0.038571,-0.001758,0.999967,0.007933,0.038586,-0.007859,0.999224,0.038571,-0.007933,-0.999224,-0.000119,0.004362,-0.022229,-0.002015,0.003226,0.000489,23.164013,27.626797,-1.000000,-1.000000,-1.000000
482148814.702542,0.038345,-0.007523,-1.021408,0.038582,0.007933,0.001758,0.999254,0.002063,-0.038571,-0.001758,0.999967,0.007933,0.038586,-0.007859,0.999224,0.038571,-0.007933,-0.999224,-0.000119,0.004362,-0.022229,-0.002015,0.003226,0.000489,23.164013,27.626797,-1.000000,-1.000000,-1.000000
482148814.712527,0.036453,-0.005569,-1.021545,0.038471,0.007837,0.001690,0.999258,0.001990,-0.038460,-0.001690,0.999968,0.007837,0.038474,-0.007766,0.999229,0.038460,-0.007837,-0.999229,-0.003029,0.003260,-0.021431,0.002885,-0.003968,-0.000335,23.164013,27.626797,-1.000000,-1.000000,-1.000000
482148814.722607,0.036530,-0.006577,-1.023483,0.038495,0.007853,0.001679,0.999257,0.001980,-0.038484,-0.001679,0.999968,0.007852,0.038498,-0.007782,0.999228,0.038484,-0.007852,-0.999228,-0.003053,0.003275,-0.021432,0.003017,0.003172,-0.002773,23.164013,27.626797,-1.000000,-1.000000,-1.000000
482148814.732581,0.037750,-0.002625,-1.026367,0.038447,0.007799,0.001696,0.999259,0.001995,-0.038436,-0.001696,0.999968,0.007799,0.038451,-0.007728,0.999231,0.038436,-0.007799,-0.999231,-0.001983,0.002229,-0.022315,-0.000808,0.002024,0.000568,23.164013,27.626797,-1.000000,-1.000000,-1.000000
482148814.742199,0.039536,-0.005569,-1.024277,0.038447,0.007799,0.001696,0.999259,0.001995,-0.038436,-0.001696,0.999968,0.007799,0.038451,-0.007728,0.999231,0.038436,-0.007799,-0.999231,-0.001983,0.002229,-0.022315,-0.000808,0.002024,0.000568,23.164013,27.626797,-1.000000,-1.000000,-1.000000
482148814.752572,0.038376,-0.008545,-1.022369,0.038416,0.007831,0.001692,0.999260,0.001992,-0.038405,-0.001692,0.999968,0.007831,0.038420,-0.007760,0.999232,0.038405,-0.007831,-0.999232,-0.001876,0.001254,-0.024252,0.010129,0.001967,-0.000038,23.164013,27.626797,-1.000000,-1.000000,-1.000000
482148814.761817,0.036530,-0.002594,-1.021576,0.038380,0.007813,0.001636,0.999262,0.001935,-0.038369,-0.001636,0.999968,0.007813,0.038383,-0.007744,0.999233,0.038369,-0.007813,-0.999233,0.001166,0.002243,-0.025044,0.008114,0.000721,-0.007176,23.164013,27.626797,-1.000000,-1.000000,-1.000000
482148814.772564,0.034500,-0.004608,-1.021683,0.038380,0.007813,0.001636,0.999262,0.001935,-0.038369,-0.001636,0.999968,0.007813,0.038383,-0.007744,0.999233,0.038369,-0.007813,-0.999233,0.001166,0.002243,-0.025044,0.008114,0.000721,-0.007176,23.164013,27.626797,-1.000000,-1.000000,-1.000000
482148814.782521,0.039841,-0.003632,-1.029144,0.038338,0.007862,0.001616,0.999263,0.001916,-0.038327,-0.001616,0.999968,0.007861,0.038341,-0.007794,0.999234,0.038327,-0.007861,-0.999234,0.001208,0.002292,-0.025042,0.009122,-0.004027,-0.003535,23.164013,27.626797,-1.000000,-1.000000,-1.000000
482148814.792575,0.036331,-0.010513,-1.021484,0.038368,0.007799,0.001514,0.999262,0.001812,-0.038357,-0.001514,0.999968,0.007799,0.038370,-0.007735,0.999234,0.038357,-0.007799,-0.999234,-0.001827,0.005205,-0.022342,0.005428,0.004353,-0.002664,23.164013,27.626797,-1.000000,-1.000000,-1.000000
482148814.802567,0.038528,-0.006577,-1.024323,0.038302,0.007722,0.001520,0.999265,0.001815,-0.038292,-0.001520,0.999969,0.007722,0.038305,-0.007658,0.999237,0.038292,-0.007722,-0.999237,-0.003792,0.003114,-0.022446,-0.002021,0.002026,0.000505,23.164013,27.626797,-1.000000,-1.000000,-1.000000
482148814.812413,0.038528,-0.006577,-1.024323,0.038302,0.007722,0.001520,0.999265,0.001815,-0.038292,-0.001520,0.999969,0.007722,0.038305,-0.007658,0.999237,0.038292,-0.007722,-0.999237,-0.003792,0.003114,-0.022446,-0.002021,0.002026,0.000505,23.164013,27.626797,-1.000000,-1.000000,-1.000000
482148814.822534,0.043365,-0.004517,-1.022125,0.038244,0.007678,0.001538,0.999267,0.001830,-0.038233,-0.001538,0.999969,0.007678,0.038246,-0.007613,0.999239,0.038233,-0.007678,-0.999239,-0.001902,-0.002836,-0.022245,0.001805,-0.002795,-0.002757,23.164013,27.626797,-1.000000,-1.000000,-1.000000
482148814.832006,0.046371,-0.007462,-1.024841,0.038228,0.007675,0.001485,0.999268,0.001777,-0.038217,-0.001485,0.999969,0.007675,0.038230,-0.007613,0.999240,0.038217,-0.007675,-0.999240,0.000311,0.001099,-0.025083,0.006836,-0.000460,-0.006051,23.164013,27.626797,-1.000000,-1.000000,-1.000000
482148814.842606,0.043228,-0.008469,-1.021103,0.038296,0.007652,0.001513,0.999265,0.001805,-0.038286,-0.001513,0.999970,0.007652,0.038298,-0.007588,0.999238,0.038286,-0.007652,-0.999238,0.005080,0.003135,-0.022888,0.000462,-0.002768,-0.000477,23.164013,27.626797,-1.000000,-1.000000,-1.000000
482148814.852664,0.036499,-0.005585,-1.022522,0.038296,0.007652,0.001513,0.999265,0.001805,-0.038286,-0.001513,0.999970,0.007652,0.038298,-0.007588,0.999238,0.038286,-0.007652,-0.999238,0.005080,0.003135,-0.022888,0.000462,-0.002768,-0.000477,23.164013,27.626797,-1.000000,-1.000000,-1.000000
482148814.862620,0.037399,-0.007538,-1.022446,0.038421,0.007648,0.001507,0.999260,0.001800,-0.038411,-0.001507,0.999970,0.007648,0.038423,-0.007585,0.999233,0.038411,-0.007648,-0.999233,0.007961,0.000187,-0.025609,0.000462,-0.003960,-0.000461,23.164013,27.626797,-1.000000,-1.000000,-1.000000
482148814.872856,0.035583,-0.004608,-1.023575,0.038419,0.007571,0.001507,0.999260,0.001797,-0.038408,-0.001507,0.999970,0.007571,0.038421,-0.007507,0.999233,0.038408,-0.007571,-0.999233,-0.001909,0.001986,-0.023289,-0.004371,-0.000359,-0.000760,23.164013,27.626797,-1.000000,-1.000000,-1.000000
482148814.882621,0.042313,-0.010452,-1.023087,0.038419,0.007571,0.001507,0.999260,0.001797,-0.038408,-0.001507,0.999970,0.007571,0.038421,-0.007507,0.999233,0.038408,-0.007571,-0.999233,-0.001909,0.001986,-0.023289,-0.004371,-0.000359,-0.000760,23.164013,27.626797,-1.000000,-1.000000,-1.000000
482148814.892579,0.036499,-0.005585,-1.022522,0.038396,0.007621,0.001455,0.999261,0.001746,-0.038385,-0.001455,0.999970,0.007621,0.038397,-0.007560,0.999234,0.038385,-0.007621,-0.999234,-0.000986,0.000084,-0.023212,0.007975,0.003129,-0.004865,23.164013,27.626797,-1.000000,-1.000000,-1.000000
482148814.902609,0.043381,-0.010483,-1.024963,0.038340,0.007525,0.001418,0.999264,0.001705,-0.038329,-0.001418,0.999971,0.007525,0.038341,-0.007465,0.999237,0.038329,-0.007525,-0.999237,-0.002746,0.002917,-0.024338,-0.001756,0.003179,-0.004196,23.164013,27.626797,-1.000000,-1.000000,-1.000000
482148814.912521,0.037521,-0.005569,-1.023438,0.038422,0.007575,0.001401,0.999261,0.001691,-0.038411,-0.001401,0.999970,0.007575,0.038423,-0.007516,0.999233,0.038411,-0.007575,-0.999233,0.003901,-0.002877,-0.023853,0.000527,0.000803,-0.001696,23.164013,27.626797,-1.000000,-1.000000,-1.000000
482148814.922195,0.037521,-0.005569,-1.023438,0.038422,0.007575,0.001401,0.999261,0.001691,-0.038411,-0.001401,0.999970,0.007575,0.038423,-0.007516,0.999233,0.038411,-0.007575,-0.999233,0.003901,-0.002877,-0.023853,0.000527,0.000803,-0.001696,0.000000,0.000000,-1.000000,-1.000000,-1.000000
482148814.932739,0.042313,-0.010452,-1.023087,0.038487,0.007590,0.001342,0.999258,0.001633,-0.038477,-0.001342,0.999970,0.007590,0.038488,-0.007533,0.999231,0.038477,-0.007590,-0.999231,0.004904,-0.002893,-0.025733,-0.001956,0.002018,-0.000666,0.000000,0.000000,-1.000000,-1.000000,-1.000000
482148814.942582,0.037415,-0.005554,-1.021484,0.038483,0.007553,0.001316,0.999258,0.001605,-0.038473,-0.001316,0.999971,0.007553,0.038484,-0.007497,0.999231,0.038473,-0.007553,-0.999231,-0.000951,0.001983,-0.024206,0.001735,0.004046,-0.001680,23.149391,27.612175,-1.000000,-1.000000,-1.000000
482148814.952654,0.039459,-0.008545,-1.024246,0.038483,0.007553,0.001316,0.999258,0.001605,-0.038473,-0.001316,0.999971,0.007553,0.038484,-0.007497,0.999231,0.038473,-0.007553,-0.999231,-0.000951,0.001983,-0.024206,0.001735,0.004046,-0.001680,23.149391,27.612175,-1.000000,-1.000000,-1.000000
482148814.962615,0.037415,-0.005554,-1.021484,0.038570,0.007619,0.001300,0.999255,0.001592,-0.038559,-0.001300,0.999970,0.007619,0.038570,-0.007563,0.999227,0.038559,-0.007619,-0.999227,0.003754,-0.002834,-0.023859,0.005361,0.000450,-0.001444,23.149391,27.612175,-1.000000,-1.000000,-1.000000
482148814.972611,0.041473,-0.007523,-1.025131,0.038530,0.007629,0.001377,0.999256,0.001669,-0.038520,-0.001377,0.999970,0.007629,0.038531,-0.007570,0.999229,0.038520,-0.007629,-0.999229,-0.001105,0.002075,-0.022256,0.003616,0.000539,0.007863,23.149391,27.612175,-1.000000,-1.000000,-1.000000
482148814.982613,0.035477,-0.004593,-1.021622,0.038522,0.007683,0.001400,0.999257,0.001695,-0.038512,-0.001400,0.999969,0.007683,0.038524,-0.007624,0.999229,0.038512,-0.007683,-0.999229,-0.001097,0.002129,-0.022256,0.002944,0.000459,-0.001569,23.149391,27.612175,-1.000000,-1.000000,-1.000000
482148814.992605,0.038391,-0.007538,-1.022385,0.038522,0.007683,0.001400,0.999257,0.001695,-0.038512,-0.001400,0.999969,0.007683,0.038524,-0.007624,0.999229,0.038512,-0.007683,-0.999229,-0.001097,0.002129,-0.022256,0.002944,0.000459,-0.001569,23.147833,27.610619,-1.000000,-1.000000,-1.000000
482148815.002658,0.040314,-0.005508,-1.020355,0.038564,0.007724,0.001422,0.999255,0.001719,-0.038553,-0.001422,0.999969,0.007724,0.038565,-0.007663,0.999227,0.038553,-0.007724,-0.999227,0.002920,0.000201,-0.025905,0.003883,0.002884,0.003147,23.147833,27.610619,-1.000000,-1.000000,-1.000000
482148815.012631,0.035355,-0.005569,-1.019669,0.038503,0.007667,0.001505,0.999257,0.001799,-0.038492,-0.001504,0.999969,0.007667,0.038505,-0.007603,0.999229,0.038492,-0.007667,-0.999229,-0.003016,0.003074,-0.022392,-0.003431,0.001731,0.003957,23.147833,27.610619,-1.000000,-1.000000,-1.000000
482148815.021736,0.035355,-0.005569,-1.019669,0.038503,0.007667,0.001505,0.999257,0.001799,-0.038492,-0.001504,0.999969,0.007667,0.038505,-0.007603,0.999229,0.038492,-0.007667,-0.999229,-0.003016,0.003074,-0.022392,-0.003431,0.001731,0.003957,23.147833,27.610619,-1.000000,-1.000000,-1.000000
482148815.032644,0.038330,-0.006531,-1.020447,0.038516,0.007648,0.001521,0.999257,0.001814,-0.038506,-0.001521,0.999970,0.007648,0.038518,-0.007584,0.999229,0.038506,-0.007648,-0.999229,-0.000114,0.000110,-0.023156,0.002809,0.000480,0.000773,23.147833,27.610619,-1.000000,-1.000000,-1.000000
482148815.042683,0.039215,-0.003510,-1.017517,0.038490,0.007651,0.001501,0.999258,0.001794,-0.038479,-0.001501,0.999970,0.007651,0.038492,-0.007588,0.999230,0.038479,-0.007651,-0.999230,-0.003125,0.002082,-0.020438,0.002807,0.004060,0.000725,23.147102,27.609886,-1.000000,-1.000000,-1.000000
482148815.052624,0.042465,-0.007507,-1.025070,0.038487,0.007719,0.001476,0.999258,0.001772,-0.038476,-0.001476,0.999969,0.007719,0.038488,-0.007657,0.999230,0.038476,-0.007719,-0.999230,-0.000146,0.001188,-0.021217,0.008980,0.002820,-0.001287,23.147102,27.609886,-1.000000,-1.000000,-1.000000
482148815.061809,0.041611,-0.004562,-1.026123,0.038487,0.007719,0.001476,0.999258,0.001772,-0.038476,-0.001476,0.999969,0.007719,0.038488,-0.007657,0.999230,0.038476,-0.007719,-0.999230,-0.000146,0.001188,-0.021217,0.008980,0.002820,-0.001287,23.147102,27.609886,-1.000000,-1.000000,-1.000000
482148815.072611,0.038498,-0.003586,-1.022430,0.038518,0.007665,0.001498,0.999257,0.001792,-0.038507,-0.001498,0.999969,0.007665,0.038520,-0.007602,0.999229,0.038507,-0.007665,-0.999229,0.000708,0.004155,-0.018288,0.001598,0.002871,0.000678,23.147102,27.609886,-1.000000,-1.000000,-1.000000
482148815.082620,0.037338,-0.008530,-1.021454,0.038600,0.007661,0.001546,0.999253,0.001841,-0.038590,-0.001546,0.999969,0.007661,0.038603,-0.007596,0.999226,0.038590,-0.007661,-0.999226,0.003876,0.000154,-0.025844,0.001129,0.002946,0.008877,23.147102,27.609886,-1.000000,-1.000000,-1.000000
482148815.092564,0.038300,-0.007507,-1.020447,0.038644,0.007571,0.001510,0.999252,0.001801,-0.038633,-0.001510,0.999970,0.007571,0.038645,-0.007507,0.999225,0.038633,-0.007571,-0.999225,-0.000135,0.003985,-0.023206,0.004952,0.002899,0.005551,23.147102,27.609886,-1.000000,-1.000000,-1.000000
482148815.102635,0.036499,-0.003586,-1.021576,0.038644,0.007571,0.001510,0.999252,0.001801,-0.038633,-0.001510,0.999970,0.007571,0.038645,-0.007507,0.999225,0.038633,-0.007571,-0.999225,-0.000135,0.003985,-0.023206,0.004952,0.002899,0.005551,23.147085,27.609871,-1.000000,-1.000000,-1.000000
482148815.112613,0.043945,-0.010376,-1.017136,0.038623,0.007628,0.001522,0.999253,0.001815,-0.038613,-0.001522,0.999970,0.007628,0.038625,-0.007564,0.999225,0.038613,-0.007628,-0.999225,-0.001274,-0.000902,-0.022229,0.002939,0.002845,-0.001601,23.147085,27.609871,-1.000000,-1.000000,-1.000000
482148815.122567,0.034424,-0.007568,-1.021652,0.038610,0.007778,0.001552,0.999253,0.001851,-0.038599,-0.001551,0.999969,0.007778,0.038612,-0.007713,0.999224,0.038599,-0.007778,-0.999224,-0.000299,0.000271,-0.021222,0.010321,-0.000787,-0.003519,23.147085,27.609871,-1.000000,-1.000000,-1.000000
482148815.132543,0.034424,-0.007568,-1.021652,0.038580,0.007700,0.001520,0.999254,0.001816,-0.038569,-0.001520,0.999969,0.007700,0.038582,-0.007635,0.999226,0.038569,-0.007700,-0.999226,-0.002070,0.004114,-0.022350,-0.000551,0.000452,-0.004101,23.147085,27.609871,-1.000000,-1.000000,-1.000000
482148815.142725,0.042496,-0.006531,-1.025070,0.038580,0.007700,0.001520,0.999254,0.001816,-0.038569,-0.001520,0.999969,0.007700,0.038582,-0.007635,0.999226,0.038569,-0.007700,-0.999226,-0.002070,0.004114,-0.022350,-0.000551,0.000452,-0.004101,23.147085,27.609871,-1.000000,-1.000000,-1.000000
482148815.152556,0.036423,-0.006561,-1.021530,0.038614,0.007782,0.001521,0.999253,0.001820,-0.038603,-0.001521,0.999969,0.007782,0.038616,-0.007718,0.999224,0.038603,-0.007782,-0.999224,-0.004179,0.000214,-0.022428,-0.002094,0.001703,0.001677,23.147865,27.610649,-1.000000,-1.000000,-1.000000
482148815.162641,0.044479,-0.007492,-1.025909,0.038694,0.007754,0.001499,0.999250,0.001798,-0.038683,-0.001499,0.999969,0.007754,0.038696,-0.007690,0.999221,0.038683,-0.007754,-0.999221,0.003812,0.001223,-0.025849,0.001730,0.001656,-0.001648,23.147865,27.610649,-1.000000,-1.000000,-1.000000
482148815.172567,0.041321,-0.007492,-1.022217,0.038694,0.007754,0.001499,0.999250,0.001798,-0.038683,-0.001499,0.999969,0.007754,0.038696,-0.007690,0.999221,0.038683,-0.007754,-0.999221,0.003812,0.001223,-0.025849,0.001730,0.001656,-0.001648,23.147865,27.610649,-1.000000,-1.000000,-1.000000
482148815.182650,0.042496,-0.006531,-1.025070,0.038665,0.007747,0.001457,0.999251,0.001755,-0.038654,-0.001457,0.999969,0.007747,0.038666,-0.007684,0.999223,0.038654,-0.007747,-0.999223,-0.002231,0.001185,-0.022308,-0.003101,0.000483,-0.001884,23.147865,27.610649,-1.000000,-1.000000,-1.000000
482148815.192715,0.040619,-0.005569,-1.026169,0.038749,0.007726,0.001429,0.999248,0.001728,-0.038738,-0.001429,0.999969,0.007726,0.038750,-0.007664,0.999220,0.038738,-0.007726,-0.999220,0.005741,0.000233,-0.026690,-0.000618,-0.001924,-0.002898,23.147865,27.610649,-1.000000,-1.000000,-1.000000
482148815.202640,0.039505,-0.004562,-1.023331,0.038879,0.007748,0.001414,0.999243,0.001714,-0.038868,-0.001414,0.999969,0.007748,0.038880,-0.007687,0.999214,0.038868,-0.007748,-0.999214,0.003628,0.001218,-0.025856,0.001796,0.000454,-0.002804,23.148424,27.611210,-1.000000,-1.000000,-1.000000
482148815.212650,0.039459,-0.002563,-1.021393,0.038879,0.007748,0.001414,0.999243,0.001714,-0.038868,-0.001414,0.999969,0.007748,0.038880,-0.007687,0.999214,0.038868,-0.007748,-0.999214,0.003628,0.001218,-0.025856,0.001796,0.000454,-0.002804,23.148424,27.611210,-1.000000,-1.000000,-1.000000
482148815.222627,0.042526,-0.005539,-1.025085,0.038913,0.007680,0.001392,0.999242,0.001689,-0.038902,-0.001392,0.999970,0.007680,0.038914,-0.007620,0.999214,0.038902,-0.007680,-0.999214,0.001717,0.002110,-0.026955,-0.005452,0.002872,-0.003213,23.148424,27.611210,-1.000000,-1.000000,-1.000000
482148815.232567,0.038406,-0.003555,-1.020493,0.038915,0.007657,0.001404,0.999241,0.001701,-0.038904,-0.001404,0.999970,0.007657,0.038916,-0.007596,0.999214,0.038904,-0.007657,-0.999214,0.000601,0.003094,-0.024117,0.001661,0.000475,-0.000462,23.148424,27.611210,-1.000000,-1.000000,-1.000000
482148815.242797,0.038406,-0.003555,-1.020493,0.038930,0.007600,0.001399,0.999241,0.001694,-0.038919,-0.001399,0.999970,0.007600,0.038931,-0.007539,0.999213,0.038919,-0.007600,-0.999213,0.000540,0.005036,-0.022179,0.010181,0.002815,-0.001225,23.148424,27.611210,-1.000000,-1.000000,-1.000000
482148815.252624,0.043442,-0.010483,-1.025925,0.038930,0.007600,0.001399,0.999241,0.001694,-0.038919,-0.001399,0.999970,0.007600,0.038931,-0.007539,0.999213,0.038919,-0.007600,-0.999213,0.000540,0.005036,-0.022179,0.010181,0.002815,-0.001225,23.149225,27.612011,-1.000000,-1.000000,-1.000000
482148815.261828,0.039307,-0.006516,-1.020386,0.038903,0.007512,0.001342,0.999242,0.001633,-0.038892,-0.001342,0.999971,0.007512,0.038903,-0.007454,0.999215,0.038892,-0.007512,-0.999215,-0.000486,0.003957,-0.021277,-0.000623,0.000464,-0.002930,23.149225,27.612011,-1.000000,-1.000000,-1.000000
482148815.272614,0.038574,-0.006592,-1.025299,0.038968,0.007524,0.001368,0.999240,0.001660,-0.038957,-0.001368,0.999971,0.007524,0.038969,-0.007465,0.999213,0.038957,-0.007524,-0.999213,0.004484,-0.002959,-0.026712,-0.004514,0.000522,0.001567,23.149225,27.612011,-1.000000,-1.000000,-1.000000
482148815.282665,0.039337,-0.005524,-1.020401,0.038968,0.007524,0.001368,0.999240,0.001660,-0.038957,-0.001368,0.999971,0.007524,0.038969,-0.007465,0.999213,0.038957,-0.007524,-0.999213,0.004484,-0.002959,-0.026712,-0.004514,0.000522,0.001567,23.149225,27.612011,-1.000000,-1.000000,-1.000000
482148815.292604,0.043137,-0.001480,-1.016342,0.039001,0.007537,0.001364,0.999238,0.001656,-0.038990,-0.001363,0.999971,0.007537,0.039001,-0.007478,0.999211,0.038990,-0.007537,-0.999211,0.000317,0.001021,-0.021175,0.005281,0.005234,-0.000337,23.149225,27.612011,-1.000000,-1.000000,-1.000000
482148815.302630,0.042603,-0.004547,-1.026062,0.038989,0.007537,0.001321,0.999239,0.001614,-0.038978,-0.001321,0.999971,0.007536,0.038989,-0.007479,0.999212,0.038978,-0.007536,-0.999212,-0.000404,0.000945,-0.026087,0.000718,0.002825,-0.005241,23.150213,27.612999,-1.000000,-1.000000,-1.000000
482148815.312619,0.035553,-0.007584,-1.024506,0.039050,0.007510,0.001302,0.999236,0.001594,-0.039039,-0.001302,0.999971,0.007510,0.039050,-0.007453,0.999209,0.039039,-0.007510,-0.999209,0.004098,0.006030,-0.017133,0.005146,0.000482,0.002069,23.150213,27.612999,-1.000000,-1.000000,-1.000000
482148815.322643,0.034485,-0.003601,-1.020737,0.039050,0.007510,0.001302,0.999236,0.001594,-0.039039,-0.001302,0.999971,0.007510,0.039050,-0.007453,0.999209,0.039039,-0.007510,-0.999209,0.004098,0.006030,-0.017133,0.005146,0.000482,0.002069,23.150213,27.612999,-1.000000,-1.000000,-1.000000
482148815.332571,0.034424,-0.007568,-1.021652,0.039075,0.007459,0.001297,0.999235,0.001587,-0.039064,-0.001297,0.999971,0.007459,0.039074,-0.007403,0.999209,0.039064,-0.007459,-0.999209,0.003539,0.002912,-0.026853,-0.000691,-0.004298,-0.001695,23.150213,27.612999,-1.000000,-1.000000,-1.000000
482148815.342604,0.037537,-0.006577,-1.024384,0.038997,0.007554,0.001316,0.999238,0.001609,-0.038986,-0.001316,0.999971,0.007554,0.038997,-0.007497,0.999211,0.038986,-0.007554,-0.999211,-0.003433,-0.000030,-0.025294,0.006487,0.001648,-0.000226,23.150213,27.612999,-1.000000,-1.000000,-1.000000
482148815.352657,0.037537,-0.006577,-1.024384,0.038997,0.007554,0.001316,0.999238,0.001609,-0.038986,-0.001316,0.999971,0.007554,0.038997,-0.007497,0.999211,0.038986,-0.007554,-0.999211,-0.003433,-0.000030,-0.025294,0.006487,0.001648,-0.000226,23.150213,27.612999,-1.000000,-1.000000,-1.000000
482148815.361879,0.035446,-0.007568,-1.022568,0.038900,0.007524,0.001307,0.999242,0.001598,-0.038889,-0.001306,0.999971,0.007524,0.038900,-0.007467,0.999215,0.038889,-0.007524,-0.999215,-0.004404,0.003923,-0.021521,0.000381,-0.003091,0.000695,23.150980,27.613766,-1.000000,-1.000000,-1.000000
482148815.372622,0.040512,-0.005554,-1.024231,0.038797,0.007490,0.001356,0.999246,0.001646,-0.038786,-0.001356,0.999971,0.007490,0.038797,-0.007432,0.999219,0.038786,-0.007490,-0.999219,-0.001249,0.000914,-0.025164,0.000111,0.002917,0.005300,23.150980,27.613766,-1.000000,-1.000000,-1.000000
482148815.382619,0.044373,-0.003510,-1.022079,0.038731,0.007531,0.001352,0.999249,0.001643,-0.038720,-0.001352,0.999971,0.007531,0.038732,-0.007473,0.999222,0.038720,-0.007531,-0.999222,-0.003274,-0.000037,-0.023346,0.005479,0.001618,-0.003803,23.150980,27.613766,-1.000000,-1.000000,-1.000000
482148815.392394,0.043289,-0.007477,-1.022095,0.038731,0.007531,0.001352,0.999249,0.001643,-0.038720,-0.001352,0.999971,0.007531,0.038732,-0.007473,0.999222,0.038720,-0.007531,-0.999222,-0.003274,-0.000037,-0.023346,0.005479,0.001618,-0.003803,23.150980,27.613766,-1.000000,-1.000000,-1.000000
482148815.402595,0.042419,-0.007492,-1.024094,0.038738,0.007607,0.001376,0.999248,0.001670,-0.038728,-0.001376,0.999970,0.007607,0.038739,-0.007548,0.999221,0.038728,-0.007607,-0.999221,0.001784,0.002053,-0.025010,0.006286,-0.005485,0.003383,23.150980,27.613766,-1.000000,-1.000000,-1.000000
482148815.412635,0.039276,-0.009491,-1.021317,0.038861,0.007546,0.001397,0.999244,0.001689,-0.038850,-0.001397,0.999971,0.007546,0.038861,-0.007486,0.999217,0.038850,-0.007546,-0.999217,0.005523,0.004036,-0.022863,0.002525,0.005294,0.005394,23.151146,27.613930,-1.000000,-1.000000,-1.000000
482148815.422593,0.037369,-0.005539,-1.020523,0.038959,0.007554,0.001430,0.999240,0.001723,-0.038948,-0.001430,0.999970,0.007554,0.038960,-0.007492,0.999213,0.038948,-0.007554,-0.999213,0.003471,0.000062,-0.024881,-0.001837,0.001661,-0.003009,23.151146,27.613930,-1.000000,-1.000000,-1.000000
482148815.432660,0.038574,-0.006592,-1.025299,0.038959,0.007554,0.001430,0.999240,0.001723,-0.038948,-0.001430,0.999970,0.007554,0.038960,-0.007492,0.999213,0.038948,-0.007554,-0.999213,0.003471,0.000062,-0.024881,-0.001837,0.001661,-0.003009,23.151146,27.613930,-1.000000,-1.000000,-1.000000
482148815.442600,0.040466,-0.005539,-1.023270,0.038964,0.007597,0.001414,0.999240,0.001709,-0.038953,-0.001414,0.999970,0.007597,0.038965,-0.007536,0.999212,0.038953,-0.007597,-0.999212,0.000323,-0.001894,-0.022104,-0.000829,0.000495,0.000584,23.151146,27.613930,-1.000000,-1.000000,-1.000000
482148815.452677,0.039795,-0.005615,-1.029114,0.038981,0.007600,0.001469,0.999239,0.001764,-0.038970,-0.001469,0.999970,0.007600,0.038982,-0.007537,0.999211,0.038970,-0.007600,-0.999211,-0.001601,0.002061,-0.021312,0.006684,0.004002,-0.003772,23.151146,27.613930,-1.000000,-1.000000,-1.000000
482148815.461968,0.039795,-0.005615,-1.029114,0.038981,0.007600,0.001469,0.999239,0.001764,-0.038970,-0.001469,0.999970,0.007600,0.038982,-0.007537,0.999211,0.038970,-0.007600,-0.999211,-0.001601,0.002061,-0.021312,0.006684,0.004002,-0.003772,23.151581,27.614365,-1.000000,-1.000000,-1.000000
482148815.472901,0.039383,-0.005539,-1.021362,0.038964,0.007565,0.001410,0.999240,0.001704,-0.038953,-0.001410,0.999970,0.007565,0.038965,-0.007504,0.999212,0.038953,-0.007565,-0.999212,-0.000379,0.000973,-0.026087,0.000914,0.000405,-0.008723,23.151581,27.614365,-1.000000,-1.000000,-1.000000
482148815.482513,0.039566,-0.008560,-1.026184,0.039009,0.007606,0.001423,0.999238,0.001719,-0.038998,-0.001423,0.999970,0.007606,0.039010,-0.007544,0.999210,0.038998,-0.007606,-0.999210,0.000797,0.001990,-0.029903,0.009907,-0.003112,0.003539,23.151581,27.614365,-1.000000,-1.000000,-1.000000
482148815.492612,0.038345,-0.007523,-1.021408,0.039015,0.007578,0.001423,0.999238,0.001718,-0.039004,-0.001423,0.999970,0.007578,0.039016,-0.007516,0.999210,0.039004,-0.007578,-0.999210,0.000379,0.002039,-0.022152,0.000442,0.002865,-0.000557,23.151581,27.614365,-1.000000,-1.000000,-1.000000
482148815.502648,0.042648,-0.000595,-1.025146,0.039015,0.007578,0.001423,0.999238,0.001718,-0.039004,-0.001423,0.999970,0.007578,0.039016,-0.007516,0.999210,0.039004,-0.007578,-0.999210,0.000379,0.002039,-0.022152,0.000442,0.002865,-0.000557,23.151581,27.614365,-1.000000,-1.000000,-1.000000
482148815.512629,0.036789,0.000336,-1.025513,0.039063,0.007678,0.001360,0.999236,0.001659,-0.039052,-0.001360,0.999970,0.007678,0.039063,-0.007619,0.999208,0.039052,-0.007678,-0.999208,0.000514,-0.000882,-0.026976,0.007891,0.000416,-0.003662,23.152180,27.614964,-1.000000,-1.000000,-1.000000
482148815.522795,0.039413,-0.008530,-1.023285,0.039004,0.007736,0.001405,0.999238,0.001706,-0.038993,-0.001405,0.999969,0.007736,0.039005,-0.007676,0.999210,0.038993,-0.007736,-0.999210,-0.000648,0.000214,-0.022199,0.007290,-0.004264,0.006944,23.152180,27.614964,-1.000000,-1.000000,-1.000000
482148815.532616,0.040512,-0.005554,-1.024231,0.038995,0.007433,0.001422,0.999238,0.001711,-0.038984,-0.001422,0.999971,0.007433,0.038996,-0.007372,0.999212,0.038984,-0.007433,-0.999212,-0.002195,0.007768,-0.026301,-0.010432,0.002910,-0.001122,23.152180,27.614964,-1.000000,-1.000000,-1.000000
482148815.542551,0.038528,-0.006577,-1.024323,0.038995,0.007433,0.001422,0.999238,0.001711,-0.038984,-0.001422,0.999971,0.007433,0.038996,-0.007372,0.999212,0.038984,-0.007433,-0.999212,-0.002195,0.007768,-0.026301,-0.010432,0.002910,-0.001122,23.152180,27.614964,-1.000000,-1.000000,-1.000000
482148815.552601,0.039337,-0.005524,-1.020401,0.038973,0.007437,0.001428,0.999239,0.001717,-0.038962,-0.001428,0.999971,0.007437,0.038974,-0.007376,0.999213,0.038962,-0.007437,-0.999213,0.000451,-0.001092,-0.024072,-0.000700,-0.003109,-0.001711,23.152180,27.614964,-1.000000,-1.000000,-1.000000
482148815.562783,0.037720,-0.003616,-1.026367,0.038966,0.007368,0.001358,0.999240,0.001644,-0.038955,-0.001358,0.999972,0.007368,0.038966,-0.007309,0.999214,0.038955,-0.007368,-0.999214,0.001557,0.001814,-0.025017,-0.001909,-0.000717,-0.001806,23.152180,27.614964,-1.000000,-1.000000,-1.000000
482148815.572217,0.037720,-0.003616,-1.026367,0.038966,0.007368,0.001358,0.999240,0.001644,-0.038955,-0.001358,0.999972,0.007368,0.038966,-0.007309,0.999214,0.038955,-0.007368,-0.999214,0.001557,0.001814,-0.025017,-0.001909,-0.000717,-0.001806,23.152596,27.615379,-1.000000,-1.000000,-1.000000
482148815.582639,0.036560,-0.005585,-1.023499,0.038927,0.007375,0.001370,0.999241,0.001656,-0.038916,-0.001370,0.999972,0.007375,0.038927,-0.007316,0.999215,0.038916,-0.007375,-0.999215,-0.000388,0.000799,-0.025107,0.006345,-0.000721,0.002148,23.152596,27.615379,-1.000000,-1.000000,-1.000000
482148815.592525,0.034439,-0.005585,-1.020706,0.038885,0.007330,0.001410,0.999243,0.001694,-0.038875,-0.001410,0.999972,0.007330,0.038886,-0.007269,0.999217,0.038875,-0.007330,-0.999217,-0.001155,0.003713,-0.027150,0.007349,0.001692,0.005692,23.152596,27.615379,-1.000000,-1.000000,-1.000000
482148815.602610,0.037613,-0.005600,-1.025375,0.038833,0.007341,0.001406,0.999245,0.001690,-0.038822,-0.001406,0.999972,0.007341,0.038834,-0.007281,0.999219,0.038822,-0.007341,-0.999219,-0.002262,0.001756,-0.024279,0.003054,-0.000760,-0.003897,23.152596,27.615379,-1.000000,-1.000000,-1.000000
482148815.612592,0.038437,-0.008545,-1.023346,0.038833,0.007341,0.001406,0.999245,0.001690,-0.038822,-0.001406,0.999972,0.007341,0.038834,-0.007281,0.999219,0.038822,-0.007341,-0.999219,-0.002262,0.001756,-0.024279,0.003054,-0.000760,-0.003897,23.152596,27.615379,-1.000000,-1.000000,-1.000000
482148815.622679,0.040314,-0.005508,-1.020355,0.038747,0.007313,0.001343,0.999248,0.001625,-0.038736,-0.001343,0.999972,0.007313,0.038747,-0.007255,0.999223,0.038736,-0.007313,-0.999223,-0.004297,0.001728,-0.021483,0.000503,0.000464,-0.001696,23.153370,27.616154,-1.000000,-1.000000,-1.000000
482148815.632618,0.042526,-0.005539,-1.025085,0.038733,0.007237,0.001300,0.999249,0.001579,-0.038722,-0.001299,0.999973,0.007237,0.038732,-0.007181,0.999224,0.038722,-0.007237,-0.999224,-0.001109,0.001637,-0.026152,-0.001914,0.006441,-0.001901,23.153370,27.616154,-1.000000,-1.000000,-1.000000
482148815.642657,0.039505,-0.008560,-1.025223,0.038741,0.007290,0.001300,0.999248,0.001581,-0.038731,-0.001300,0.999973,0.007290,0.038741,-0.007234,0.999223,0.038731,-0.007290,-0.999223,-0.000294,-0.001255,-0.024123,0.006475,0.001641,-0.000227,23.153370,27.616154,-1.000000,-1.000000,-1.000000
482148815.652783,0.034607,-0.008621,-1.025528,0.038765,0.007312,0.001274,0.999248,0.001557,-0.038755,-0.001274,0.999972,0.007312,0.038765,-0.007257,0.999222,0.038755,-0.007312,-0.999222,0.001559,0.001804,-0.021133,0.010233,0.000412,-0.002365,23.153370,27.616154,-1.000000,-1.000000,-1.000000
482148815.661893,0.038376,-0.006546,-1.021408,0.038811,0.007356,0.001254,0.999246,0.001538,-0.038800,-0.001254,0.999972,0.007356,0.038810,-0.007302,0.999220,0.038800,-0.007356,-0.999220,0.003726,0.001817,-0.025866,0.005335,-0.001944,-0.001413,23.153370,27.616154,-1.000000,-1.000000,-1.000000
482148815.671763,0.038376,-0.006546,-1.021408,0.038824,0.007460,0.001255,0.999245,0.001544,-0.038813,-0.001255,0.999971,0.007460,0.038824,-0.007405,0.999219,0.038813,-0.007460,-0.999219,0.000692,-0.001101,-0.026004,0.003925,0.001673,0.001990,23.153450,27.616234,-1.000000,-1.000000,-1.000000
482148815.682825,0.036545,-0.007568,-1.024445,0.038824,0.007460,0.001255,0.999245,0.001544,-0.038813,-0.001255,0.999971,0.007460,0.038824,-0.007405,0.999219,0.038813,-0.007460,-0.999219,0.000692,-0.001101,-0.026004,0.003925,0.001673,0.001990,23.153450,27.616234,-1.000000,-1.000000,-1.000000
482148815.692578,0.040527,-0.006561,-1.025192,0.038729,0.007504,0.001241,0.999249,0.001530,-0.038718,-0.001241,0.999971,0.007504,0.038729,-0.007450,0.999222,0.038718,-0.007504,-0.999222,-0.004111,-0.001117,-0.026306,0.004127,-0.001940,-0.001476,23.153450,27.616234,-1.000000,-1.000000,-1.000000
482148815.702609,0.040329,-0.004517,-1.020370,0.038715,0.007554,0.001242,0.999250,0.001534,-0.038704,-0.001242,0.999971,0.007554,0.038714,-0.007500,0.999222,0.038704,-0.007554,-0.999222,-0.002159,-0.000014,-0.025222,0.004259,0.002812,-0.003882,23.153450,27.616234,-1.000000,-1.000000,-1.000000
482148815.712611,0.038528,-0.008575,-1.025284,0.038751,0.007530,0.001221,0.999248,0.001512,-0.038740,-0.001221,0.999971,0.007530,0.038750,-0.007477,0.999221,0.038740,-0.007530,-0.999221,0.001787,0.000969,-0.025971,0.000501,0.004042,-0.001744,23.153450,27.616234,-1.000000,-1.000000,-1.000000
482148815.722677,0.042343,-0.006500,-1.022156,0.038751,0.007530,0.001221,0.999248,0.001512,-0.038740,-0.001221,0.999971,0.007530,0.038750,-0.007477,0.999221,0.038740,-0.007530,-0.999221,0.001787,0.000969,-0.025971,0.000501,0.004042,-0.001744,23.153475,27.616261,-1.000000,-1.000000,-1.000000
482148815.732612,0.038391,-0.010513,-1.023315,0.038801,0.007587,0.001179,0.999246,0.001473,-0.038790,-0.001179,0.999970,0.007587,0.038800,-0.007536,0.999219,0.038790,-0.007587,-0.999219,0.001539,0.003070,-0.021152,0.005200,-0.001925,0.000929,23.153475,27.616261,-1.000000,-1.000000,-1.000000
482148815.742618,0.038635,-0.008591,-1.027206,0.038803,0.007600,0.001190,0.999246,0.001484,-0.038792,-0.001190,0.999970,0.007600,0.038802,-0.007548,0.999218,0.038792,-0.007600,-0.999218,-0.000264,-0.000975,-0.026065,0.000501,0.002849,-0.001728,23.153475,27.616261,-1.000000,-1.000000,-1.000000
482148815.752899,0.035431,-0.006577,-1.021591,0.038848,0.007585,0.001169,0.999245,0.001463,-0.038837,-0.001169,0.999971,0.007585,0.038847,-0.007534,0.999217,0.038837,-0.007585,-0.999217,0.003506,0.001085,-0.022939,0.000568,0.000452,-0.002868,23.153475,27.616261,-1.000000,-1.000000,-1.000000
482148815.762557,0.039658,-0.008575,-1.028107,0.038820,0.007642,0.001159,0.999246,0.001455,-0.038809,-0.001159,0.999970,0.007641,0.038819,-0.007591,0.999217,0.038809,-0.007641,-0.999217,-0.000418,-0.002872,-0.024098,0.002850,0.001655,-0.000415,23.153475,27.616261,-1.000000,-1.000000,-1.000000
482148815.772697,0.038345,-0.007523,-1.021408,0.038806,0.007758,0.001177,0.999246,0.001477,-0.038795,-0.001177,0.999969,0.007758,0.038805,-0.007706,0.999217,0.038795,-0.007758,-0.999217,-0.000160,-0.000833,-0.027989,0.011172,-0.000746,0.002399,23.153311,27.616096,-1.000000,-1.000000,-1.000000
482148815.782235,0.038345,-0.007523,-1.021408,0.038728,0.007796,0.001093,0.999249,0.001394,-0.038717,-0.001093,0.999969,0.007796,0.038727,-0.007748,0.999220,0.038717,-0.007796,-0.999220,-0.003286,0.001220,-0.022371,0.011372,0.000415,-0.001131,23.153311,27.616096,-1.000000,-1.000000,-1.000000
482148815.792658,0.037521,-0.005569,-1.023438,0.038728,0.007796,0.001093,0.999249,0.001394,-0.038717,-0.001093,0.999969,0.007796,0.038727,-0.007748,0.999220,0.038717,-0.007796,-0.999220,-0.003286,0.001220,-0.022371,0.011372,0.000415,-0.001131,23.153311,27.616096,-1.000000,-1.000000,-1.000000
482148815.802558,0.036545,-0.007568,-1.024445,0.038723,0.007850,0.001073,0.999249,0.001376,-0.038712,-0.001073,0.999969,0.007850,0.038722,-0.007802,0.999220,0.038712,-0.007850,-0.999220,0.000945,-0.000726,-0.028887,-0.000639,0.000455,-0.002931,23.153311,27.616096,-1.000000,-1.000000,-1.000000
482148815.812609,0.039459,-0.008545,-1.024246,0.038711,0.007752,0.001051,0.999250,0.001350,-0.038700,-0.001051,0.999969,0.007752,0.038709,-0.007705,0.999221,0.038700,-0.007752,-0.999221,-0.001179,0.002183,-0.024217,0.001775,0.002831,-0.002837,23.153311,27.616096,-1.000000,-1.000000,-1.000000
482148815.822607,0.036575,-0.004593,-1.023514,0.038655,0.007821,0.001021,0.999252,0.001322,-0.038645,-0.001021,0.999969,0.007821,0.038654,-0.007775,0.999222,0.038645,-0.007821,-0.999222,-0.002100,0.000252,-0.025222,0.007682,-0.000755,-0.000133,23.153311,27.616096,-1.000000,-1.000000,-1.000000
482148815.832599,0.040375,-0.004532,-1.021332,0.038655,0.007821,0.001021,0.999252,0.001322,-0.038645,-0.001021,0.999969,0.007821,0.038654,-0.007775,0.999222,0.038645,-0.007821,-0.999222,-0.002100,0.000252,-0.025222,0.007682,-0.000755,-0.000133,23.152851,27.615635,-1.000000,-1.000000,-1.000000
482148815.842617,0.037415,-0.005554,-1.021484,0.038695,0.007906,0.000963,0.999251,0.001268,-0.038684,-0.000963,0.999968,0.007906,0.038693,-0.007863,0.999220,0.038684,-0.007906,-0.999220,0.000775,-0.000639,-0.025026,0.011037,0.000208,0.004727,23.152851,27.615635,-1.000000,-1.000000,-1.000000
482148815.852616,0.043457,-0.005524,-1.024048,0.038650,0.007842,0.001012,0.999252,0.001314,-0.038639,-0.001012,0.999969,0.007842,0.038648,-0.007797,0.999222,0.038639,-0.007842,-0.999222,-0.002064,0.003249,-0.024291,-0.004733,0.001478,0.005065,23.152851,27.615635,-1.000000,-1.000000,-1.000000
482148815.862740,0.037460,-0.007538,-1.023422,0.038674,0.007769,0.001001,0.999251,0.001301,-0.038663,-0.001001,0.999969,0.007769,0.038672,-0.007724,0.999222,0.038663,-0.007769,-0.999222,0.001711,0.003237,-0.022110,-0.001782,0.001383,-0.004179,23.152851,27.615635,-1.000000,-1.000000,-1.000000
482148815.872581,0.036423,-0.004562,-1.020599,0.038652,0.007744,0.000991,0.999252,0.001290,-0.038641,-0.000991,0.999970,0.007744,0.038650,-0.007699,0.999223,0.038641,-0.007744,-0.999223,-0.001227,0.002189,-0.022261,0.004056,0.001389,-0.000351,23.152851,27.615635,-1.000000,-1.000000,-1.000000
482148815.882582,0.042114,-0.005447,-1.017319,0.038716,0.007712,0.000997,0.999250,0.001294,-0.038705,-0.000997,0.999970,0.007712,0.038714,-0.007668,0.999221,0.038705,-0.007712,-0.999221,0.004752,0.002189,-0.024827,0.001507,-0.003353,0.001929,23.152180,27.614964,-1.000000,-1.000000,-1.000000
482148815.892731,0.042114,-0.005447,-1.017319,0.038700,0.007763,0.000977,0.999250,0.001276,-0.038689,-0.000977,0.999969,0.007763,0.038698,-0.007719,0.999221,0.038689,-0.007763,-0.999221,-0.001229,0.000225,-0.024201,0.007744,0.006138,-0.001398,23.152180,27.614964,-1.000000,-1.000000,-1.000000
482148815.902640,0.038422,-0.004562,-1.021439,0.038700,0.007763,0.000977,0.999250,0.001276,-0.038689,-0.000977,0.999969,0.007763,0.038698,-0.007719,0.999221,0.038689,-0.007763,-0.999221,-0.001229,0.000225,-0.024201,0.007744,0.006138,-0.001398,23.152180,27.614964,-1.000000,-1.000000,-1.000000
482148815.912658,0.042404,-0.006500,-1.023132,0.038604,0.007774,0.001022,0.999254,0.001321,-0.038593,-0.001022,0.999969,0.007774,0.038602,-0.007728,0.999225,0.038593,-0.007774,-0.999225,-0.002171,0.003211,-0.021375,0.004998,-0.009316,0.004540,23.152180,27.614964,-1.000000,-1.000000,-1.000000
482148815.922733,0.040512,-0.005554,-1.024231,0.038652,0.007784,0.000997,0.999252,0.001297,-0.038641,-0.000997,0.999969,0.007784,0.038650,-0.007740,0.999223,0.038641,-0.007784,-0.999223,-0.000219,0.003222,-0.022216,0.004122,-0.003396,-0.001459,23.152180,27.614964,-1.000000,-1.000000,-1.000000
482148815.932686,0.038818,-0.005630,-1.029175,0.038702,0.007783,0.000976,0.999250,0.001276,-0.038691,-0.000976,0.999969,0.007782,0.038700,-0.007739,0.999221,0.038691,-0.007782,-0.999221,0.003713,0.001282,-0.023911,0.005328,0.000180,-0.001444,23.150747,27.613533,-1.000000,-1.000000,-1.000000
482148815.942622,0.040710,-0.005585,-1.028091,0.038702,0.007783,0.000976,0.999250,0.001276,-0.038691,-0.000976,0.999969,0.007782,0.038700,-0.007739,0.999221,0.038691,-0.007782,-0.999221,0.003713,0.001282,-0.023911,0.005328,0.000180,-0.001444,23.150747,27.613533,-1.000000,-1.000000,-1.000000
482148815.952616,0.038467,-0.004578,-1.022415,0.038732,0.007811,0.000950,0.999249,0.001252,-0.038721,-0.000950,0.999969,0.007811,0.038730,-0.007768,0.999220,0.038721,-0.007811,-0.999220,0.001791,0.002257,-0.025011,0.001838,0.000175,-0.003975,23.150747,27.613533,-1.000000,-1.000000,-1.000000
482148815.961860,0.039230,-0.011459,-1.021301,0.038741,0.007808,0.000935,0.999249,0.001237,-0.038731,-0.000935,0.999969,0.007808,0.038739,-0.007766,0.999219,0.038731,-0.007808,-0.999219,0.000088,0.002178,-0.029956,0.001635,0.003787,-0.000509,23.150747,27.613533,-1.000000,-1.000000,-1.000000
482148815.972715,0.036621,-0.004608,-1.024475,0.038782,0.007749,0.000919,0.999247,0.001218,-0.038771,-0.000919,0.999970,0.007749,0.038779,-0.007708,0.999218,0.038771,-0.007749,-0.999218,0.001940,0.002165,-0.028873,0.001835,0.003756,-0.004023,23.150747,27.613533,-1.000000,-1.000000,-1.000000
482148815.982668,0.037628,-0.004608,-1.025391,0.038766,0.007694,0.000892,0.999248,0.001190,-0.038755,-0.000892,0.999970,0.007694,0.038763,-0.007654,0.999219,0.038755,-0.007694,-0.999219,-0.000288,0.003117,-0.023196,-0.005679,0.000247,0.000333,23.150005,27.612789,-1.000000,-1.000000,-1.000000
482148815.992625,0.039429,-0.005554,-1.022339,0.038738,0.007722,0.000919,0.999249,0.001218,-0.038727,-0.000919,0.999970,0.007722,0.038735,-0.007680,0.999220,0.038727,-0.007722,-0.999220,0.000503,-0.003738,-0.022081,-0.005820,-0.003444,0.002726,23.150005,27.612789,-1.000000,-1.000000,-1.000000
482148816.001944,0.039429,-0.005554,-1.022339,0.038691,0.007699,0.000926,0.999251,0.001224,-0.038680,-0.000926,0.999970,0.007699,0.038689,-0.007657,0.999222,0.038680,-0.007699,-0.999222,-0.002059,0.003091,-0.025253,0.005318,-0.001145,-0.001425,23.150005,27.612789,-1.000000,-1.000000,-1.000000
482148816.012132,0.034790,-0.005661,-1.027481,0.038691,0.007699,0.000926,0.999251,0.001224,-0.038680,-0.000926,0.999970,0.007699,0.038689,-0.007657,0.999222,0.038680,-0.007699,-0.999222,-0.002059,0.003091,-0.025253,0.005318,-0.001145,-0.001425,23.150005,27.612789,-1.000000,-1.000000,-1.000000
482148816.022678,0.041519,-0.010513,-1.027008,0.038674,0.007696,0.000895,0.999252,0.001192,-0.038664,-0.000895,0.999970,0.007696,0.038672,-0.007656,0.999223,0.038664,-0.007696,-0.999223,-0.001035,0.003088,-0.026168,0.005449,0.003608,-0.003832,23.150005,27.612789,-1.000000,-1.000000,-1.000000
482148816.032639,0.041504,-0.006546,-1.025131,0.038600,0.007656,0.000870,0.999254,0.001165,-0.038590,-0.000870,0.999970,0.007656,0.038597,-0.007617,0.999226,0.038590,-0.007656,-0.999226,-0.003800,0.001995,-0.028255,0.002900,0.000057,-0.001567,23.149982,27.612766,-1.000000,-1.000000,-1.000000
482148816.042663,0.040405,-0.011490,-1.025146,0.038658,0.007699,0.000875,0.999252,0.001172,-0.038647,-0.000875,0.999970,0.007698,0.038655,-0.007659,0.999223,0.038647,-0.007698,-0.999223,0.002872,-0.002815,-0.027785,-0.000924,0.000105,0.001758,23.149982,27.612766,-1.000000,-1.000000,-1.000000
482148816.052669,0.039581,-0.005585,-1.025253,0.038658,0.007699,0.000875,0.999252,0.001172,-0.038647,-0.000875,0.999970,0.007698,0.038655,-0.007659,0.999223,0.038647,-0.007698,-0.999223,0.002872,-0.002815,-0.027785,-0.000924,0.000105,0.001758,23.149982,27.612766,-1.000000,-1.000000,-1.000000
482148816.062575,0.040527,-0.006561,-1.025192,0.038678,0.007675,0.000882,0.999251,0.001178,-0.038667,-0.000882,0.999970,0.007675,0.038675,-0.007635,0.999223,0.038667,-0.007675,-0.999223,0.002837,0.001129,-0.025909,-0.003407,-0.001068,0.002820,23.149982,27.612766,-1.000000,-1.000000,-1.000000
482148816.072618,0.039352,-0.004532,-1.020416,0.038676,0.007702,0.000903,0.999251,0.001200,-0.038665,-0.000903,0.999970,0.007702,0.038674,-0.007661,0.999223,0.038665,-0.007702,-0.999223,0.001740,-0.003788,-0.025924,-0.004413,-0.001094,-0.000757,23.149982,27.612766,-1.000000,-1.000000,-1.000000
482148816.082721,0.040482,-0.006546,-1.024216,0.038708,0.007723,0.000878,0.999250,0.001176,-0.038697,-0.000878,0.999970,0.007723,0.038705,-0.007684,0.999221,0.038697,-0.007723,-0.999221,0.001830,0.001162,-0.025971,0.005449,0.000027,-0.003784,23.149982,27.612766,-1.000000,-1.000000,-1.000000
482148816.092623,0.039474,-0.007538,-1.024261,0.038708,0.007723,0.000878,0.999250,0.001176,-0.038697,-0.000878,0.999970,0.007723,0.038705,-0.007684,0.999221,0.038697,-0.007723,-0.999221,0.001830,0.001162,-0.025971,0.005449,0.000027,-0.003784,23.149975,27.612759,-1.000000,-1.000000,-1.000000
482148816.102613,0.035767,-0.003647,-1.026489,0.038727,0.007697,0.000830,0.999250,0.001127,-0.038716,-0.000830,0.999970,0.007697,0.038724,-0.007659,0.999221,0.038716,-0.007697,-0.999221,0.000636,0.003165,-0.021196,0.003033,0.000037,-0.003910,23.149975,27.612759,-1.000000,-1.000000,-1.000000
482148816.112579,0.037308,-0.007507,-1.020508,0.038825,0.007723,0.000819,0.999246,0.001119,-0.038814,-0.000819,0.999970,0.007723,0.038822,-0.007685,0.999217,0.038814,-0.007723,-0.999217,0.001667,0.001177,-0.024999,0.009944,0.003640,0.002276,23.149975,27.612759,-1.000000,-1.000000,-1.000000
482148816.122681,0.037308,-0.007507,-1.020508,0.038825,0.007723,0.000819,0.999246,0.001119,-0.038814,-0.000819,0.999970,0.007723,0.038822,-0.007685,0.999217,0.038814,-0.007723,-0.999217,0.001667,0.001177,-0.024999,0.009944,0.003640,0.002276,23.149975,27.612759,-1.000000,-1.000000,-1.000000
482148816.132580,0.039505,-0.006561,-1.024261,0.038831,0.007731,0.000809,0.999246,0.001109,-0.038820,-0.000809,0.999970,0.007731,0.038828,-0.007693,0.999216,0.038820,-0.007731,-0.999216,0.000654,0.000193,-0.025045,0.000616,0.003628,-0.004083,23.149975,27.612759,-1.000000,-1.000000,-1.000000
482148816.141964,0.036346,-0.005554,-1.019608,0.038743,0.007678,0.000795,0.999249,0.001092,-0.038732,-0.000795,0.999970,0.007678,0.038739,-0.007641,0.999220,0.038732,-0.007678,-0.999220,-0.001424,0.000171,-0.021288,0.001472,0.004760,0.001824,23.149462,27.612247,-1.000000,-1.000000,-1.000000
482148816.152611,0.040482,-0.006546,-1.024216,0.038749,0.007695,0.000806,0.999249,0.001104,-0.038738,-0.000806,0.999970,0.007695,0.038746,-0.007658,0.999220,0.038738,-0.007695,-0.999220,0.000767,0.001133,-0.025042,0.001675,-0.001239,-0.001610,23.149462,27.612247,-1.000000,-1.000000,-1.000000
482148816.162594,0.041641,-0.003571,-1.026138,0.038749,0.007695,0.000806,0.999249,0.001104,-0.038738,-0.000806,0.999970,0.007695,0.038746,-0.007658,0.999220,0.038738,-0.007695,-0.999220,0.000767,0.001133,-0.025042,0.001675,-0.001239,-0.001610,23.149462,27.612247,-1.000000,-1.000000,-1.000000
482148816.172795,0.040512,-0.003555,-1.023300,0.038667,0.007686,0.000776,0.999252,0.001073,-0.038656,-0.000776,0.999970,0.007686,0.038663,-0.007650,0.999223,0.038656,-0.007686,-0.999223,-0.002309,0.002132,-0.020385,0.001740,0.001137,-0.002813,23.149462,27.612247,-1.000000,-1.000000,-1.000000
482148816.182632,0.040527,-0.004562,-1.024246,0.038699,0.007631,0.000765,0.999251,0.001060,-0.038689,-0.000765,0.999971,0.007631,0.038696,-0.007595,0.999222,0.038689,-0.007631,-0.999222,0.001793,0.001085,-0.024994,-0.002017,-0.000021,-0.000643,23.149462,27.612247,-1.000000,-1.000000,-1.000000
482148816.192583,0.039841,-0.003632,-1.029144,0.038699,0.007631,0.000765,0.999251,0.001060,-0.038689,-0.000765,0.999971,0.007631,0.038696,-0.007595,0.999222,0.038689,-0.007631,-0.999222,0.001793,0.001085,-0.024994,-0.002017,-0.000021,-0.000643,23.149075,27.611858,-1.000000,-1.000000,-1.000000
482148816.202596,0.039581,-0.009552,-1.027130,0.038751,0.007571,0.000713,0.999249,0.001006,-0.038740,-0.000713,0.999971,0.007571,0.038746,-0.007538,0.999221,0.038740,-0.007571,-0.999221,0.001772,0.004016,-0.024080,0.006638,-0.001281,-0.003701,23.149075,27.611858,-1.000000,-1.000000,-1.000000
482148816.212613,0.039520,-0.007553,-1.025238,0.038787,0.007554,0.000660,0.999247,0.000952,-0.038776,-0.000660,0.999971,0.007553,0.038783,-0.007522,0.999219,0.038776,-0.007553,-0.999219,0.001751,0.002991,-0.025027,0.007778,-0.000082,-0.002483,23.149075,27.611858,-1.000000,-1.000000,-1.000000
482148816.222631,0.037430,-0.004562,-1.021500,0.038779,0.007521,0.000651,0.999248,0.000942,-0.038768,-0.000651,0.999972,0.007521,0.038774,-0.007490,0.999220,0.038768,-0.007521,-0.999220,0.001072,0.003890,-0.029924,0.003684,0.000007,0.005527,23.149075,27.611858,-1.000000,-1.000000,-1.000000
