Timestamp,Accel_X,Accel_Y,Accel_Z,Roll,Pitch,Yaw,RM11,RM12,RM13,RM21,RM22,RM23,RM31,RM32,RM33,GravAcc_X,GravAcc_Y,GravAcc_Z,UserAcc_X,UserAcc_Y,UserAcc_Z,RotRate_X,RotRate_Y,RotRate_Z,MagHeading,TrueHeading,HeadingAccuracy,Course,Speed
482149134.526027,0.041733,-0.007568,-1.029953,0.038872,0.005791,0.012979,0.999157,0.013194,-0.038861,-0.012979,0.999899,0.005791,0.038934,-0.005282,0.999228,0.038861,-0.005791,-0.999228,0.004809,0.001229,-0.028696,0.006901,0.004092,0.002867,23.419695,27.882481,-1.000000,-1.000000,-1.000000
482149134.533333,0.041733,-0.007568,-1.029953,0.038872,0.005791,0.012979,0.999157,0.013194,-0.038861,-0.012979,0.999899,0.005791,0.038934,-0.005282,0.999228,0.038861,-0.005791,-0.999228,0.004809,0.001229,-0.028696,0.006901,0.004092,0.002867,23.419695,27.882481,-1.000000,-1.000000,-1.000000
482149134.543172,0.037827,-0.005630,-1.029236,0.038872,0.005791,0.012979,0.999157,0.013194,-0.038861,-0.012979,0.999899,0.005791,0.038934,-0.005282,0.999228,0.038861,-0.005791,-0.999228,0.004809,0.001229,-0.028696,0.006901,0.004092,0.002867,23.419695,27.882481,-1.000000,-1.000000,-1.000000
482149134.553867,0.041458,-0.008530,-1.025116,0.038872,0.005791,0.012979,0.999157,0.013194,-0.038861,-0.012979,0.999899,0.005791,0.038934,-0.005282,0.999228,0.038861,-0.005791,-0.999228,0.004809,0.001229,-0.028696,0.006901,0.004092,0.002867,23.419695,27.882481,-1.000000,-1.000000,-1.000000
482149134.564472,0.041809,-0.000626,-1.028091,0.038872,0.005791,0.012979,0.999157,0.013194,-0.038861,-0.012979,0.999899,0.005791,0.038934,-0.005282,0.999228,0.038861,-0.005791,-0.999228,0.004809,0.001229,-0.028696,0.006901,0.004092,0.002867,23.419695,27.882481,-1.000000,-1.000000,-1.000000
482149134.573812,0.045364,-0.005478,-1.022964,0.038872,0.005791,0.012979,0.999157,0.013194,-0.038861,-0.012979,0.999899,0.005791,0.038934,-0.005282,0.999228,0.038861,-0.005791,-0.999228,0.004809,0.001229,-0.028696,0.006901,0.004092,0.002867,23.419695,27.882481,-1.000000,-1.000000,-1.000000
482149134.583279,0.044418,-0.007492,-1.024948,0.038872,0.005791,0.012979,0.999157,0.013194,-0.038861,-0.012979,0.999899,0.005791,0.038934,-0.005282,0.999228,0.038861,-0.005791,-0.999228,0.004809,0.001229,-0.028696,0.006901,0.004092,0.002867,23.419695,27.882481,-1.000000,-1.000000,-1.000000
482149134.593119,0.034698,-0.004654,-1.025574,0.038872,0.005791,0.012979,0.999157,0.013194,-0.038861,-0.012979,0.999899,0.005791,0.038934,-0.005282,0.999228,0.038861,-0.005791,-0.999228,0.004809,0.001229,-0.028696,0.006901,0.004092,0.002867,23.419695,27.882481,-1.000000,-1.000000,-1.000000
482149134.603155,0.039795,-0.005615,-1.029114,0.038872,0.005791,0.012979,0.999157,0.013194,-0.038861,-0.012979,0.999899,0.005791,0.038934,-0.005282,0.999228,0.038861,-0.005791,-0.999228,0.004809,0.001229,-0.028696,0.006901,0.004092,0.002867,23.419695,27.882481,-1.000000,-1.000000,-1.000000
482149134.613770,0.030975,-0.006729,-1.030594,0.038872,0.005791,0.012979,0.999157,0.013194,-0.038861,-0.012979,0.999899,0.005791,0.038934,-0.005282,0.999228,0.038861,-0.005791,-0.999228,0.004809,0.001229,-0.028696,0.006901,0.004092,0.002867,23.419695,27.882481,-1.000000,-1.000000,-1.000000
482149134.623849,0.039307,-0.008514,-1.021332,0.038872,0.005791,0.012979,0.999157,0.013194,-0.038861,-0.012979,0.999899,0.005791,0.038934,-0.005282,0.999228,0.038861,-0.005791,-0.999228,0.004809,0.001229,-0.028696,0.006901,0.004092,0.002867,23.419695,27.882481,-1.000000,-1.000000,-1.000000
482149134.634171,0.043549,-0.007523,-1.026932,0.038872,0.005791,0.012979,0.999157,0.013194,-0.038861,-0.012979,0.999899,0.005791,0.038934,-0.005282,0.999228,0.038861,-0.005791,-0.999228,0.004809,0.001229,-0.028696,0.006901,0.004092,0.002867,23.419695,27.882481,-1.000000,-1.000000,-1.000000
482149134.644064,0.039673,-0.010559,-1.029053,0.038872,0.005791,0.012979,0.999157,0.013194,-0.038861,-0.012979,0.999899,0.005791,0.038934,-0.005282,0.999228,0.038861,-0.005791,-0.999228,0.004809,0.001229,-0.028696,0.006901,0.004092,0.002867,23.419695,27.882481,-1.000000,-1.000000,-1.000000
482149134.653974,0.036591,-0.007584,-1.025421,0.038872,0.005791,0.012979,0.999157,0.013194,-0.038861,-0.012979,0.999899,0.005791,0.038934,-0.005282,0.999228,0.038861,-0.005791,-0.999228,0.004809,0.001229,-0.028696,0.006901,0.004092,0.002867,23.419695,27.882481,-1.000000,-1.000000,-1.000000
482149134.663503,0.036591,-0.007584,-1.025421,0.038872,0.005791,0.012979,0.999157,0.013194,-0.038861,-0.012979,0.999899,0.005791,0.038934,-0.005282,0.999228,0.038861,-0.005791,-0.999228,0.004809,0.001229,-0.028696,0.006901,0.004092,0.002867,23.419695,27.882481,-1.000000,-1.000000,-1.000000
482149134.674089,0.039764,-0.008606,-1.030045,0.038872,0.005791,0.012979,0.999157,0.013194,-0.038861,-0.012979,0.999899,0.005791,0.038934,-0.005282,0.999228,0.038861,-0.005791,-0.999228,0.004809,0.001229,-0.028696,0.006901,0.004092,0.002867,23.419695,27.882481,-1.000000,-1.000000,-1.000000
482149134.683798,0.046585,-0.005508,-1.027740,0.038872,0.005791,0.012979,0.999157,0.013194,-0.038861,-0.012979,0.999899,0.005791,0.038934,-0.005282,0.999228,0.038861,-0.005791,-0.999228,0.004809,0.001229,-0.028696,0.006901,0.004092,0.002867,23.419695,27.882481,-1.000000,-1.000000,-1.000000
482149134.693638,0.043564,-0.005539,-1.025986,0.038872,0.005791,0.012979,0.999157,0.013194,-0.038861,-0.012979,0.999899,0.005791,0.038934,-0.005282,0.999228,0.038861,-0.005791,-0.999228,0.004809,0.001229,-0.028696,0.006901,0.004092,0.002867,23.419695,27.882481,-1.000000,-1.000000,-1.000000
482149134.703865,0.039581,-0.001587,-1.023361,0.038872,0.005791,0.012979,0.999157,0.013194,-0.038861,-0.012979,0.999899,0.005791,0.038934,-0.005282,0.999228,0.038861,-0.005791,-0.999228,0.004809,0.001229,-0.028696,0.006901,0.004092,0.002867,23.419695,27.882481,-1.000000,-1.000000,-1.000000
482149134.713834,0.041656,-0.004578,-1.027084,0.038872,0.005791,0.012979,0.999157,0.013194,-0.038861,-0.012979,0.999899,0.005791,0.038934,-0.005282,0.999228,0.038861,-0.005791,-0.999228,0.004809,0.001229,-0.028696,0.006901,0.004092,0.002867,23.419695,27.882481,-1.000000,-1.000000,-1.000000
482149134.723906,0.038391,-0.010513,-1.023315,0.038872,0.005791,0.012979,0.999157,0.013194,-0.038861,-0.012979,0.999899,0.005791,0.038934,-0.005282,0.999228,0.038861,-0.005791,-0.999228,0.004809,0.001229,-0.028696,0.006901,0.004092,0.002867,23.419695,27.882481,-1.000000,-1.000000,-1.000000
482149134.733884,0.047241,-0.006439,-1.021866,0.038872,0.005791,0.012979,0.999157,0.013194,-0.038861,-0.012979,0.999899,0.005791,0.038934,-0.005282,0.999228,0.038861,-0.005791,-0.999228,0.004809,0.001229,-0.028696,0.006901,0.004092,0.002867,23.419695,27.882481,-1.000000,-1.000000,-1.000000
482149134.743821,0.041779,-0.008575,-1.030914,0.038872,0.005791,0.012979,0.999157,0.013194,-0.038861,-0.012979,0.999899,0.005791,0.038934,-0.005282,0.999228,0.038861,-0.005791,-0.999228,0.004809,0.001229,-0.028696,0.006901,0.004092,0.002867,23.419695,27.882481,-1.000000,-1.000000,-1.000000
482149134.753857,0.037109,-0.005493,-1.015671,0.038872,0.005791,0.012979,0.999157,0.013194,-0.038861,-0.012979,0.999899,0.005791,0.038934,-0.005282,0.999228,0.038861,-0.005791,-0.999228,0.004809,0.001229,-0.028696,0.006901,0.004092,0.002867,23.419695,27.882481,-1.000000,-1.000000,-1.000000
482149134.763223,0.039993,-0.005661,-1.032990,0.038872,0.005791,0.012979,0.999157,0.013194,-0.038861,-0.012979,0.999899,0.005791,0.038934,-0.005282,0.999228,0.038861,-0.005791,-0.999228,0.004809,0.001229,-0.028696,0.006901,0.004092,0.002867,23.419695,27.882481,-1.000000,-1.000000,-1.000000
482149134.773216,0.039993,-0.005661,-1.032990,0.038872,0.005791,0.012979,0.999157,0.013194,-0.038861,-0.012979,0.999899,0.005791,0.038934,-0.005282,0.999228,0.038861,-0.005791,-0.999228,0.004809,0.001229,-0.028696,0.006901,0.004092,0.002867,23.419695,27.882481,-1.000000,-1.000000,-1.000000
482149134.783827,0.040558,-0.007538,-1.026154,0.038872,0.005791,0.012979,0.999157,0.013194,-0.038861,-0.012979,0.999899,0.005791,0.038934,-0.005282,0.999228,0.038861,-0.005791,-0.999228,0.004809,0.001229,-0.028696,0.006901,0.004092,0.002867,23.419695,27.882481,-1.000000,-1.000000,-1.000000
482149134.793844,0.038651,-0.003616,-1.025345,0.038872,0.005791,0.012979,0.999157,0.013194,-0.038861,-0.012979,0.999899,0.005791,0.038934,-0.005282,0.999228,0.038861,-0.005791,-0.999228,0.004809,0.001229,-0.028696,0.006901,0.004092,0.002867,23.419695,27.882481,-1.000000,-1.000000,-1.000000
482149134.803857,0.037689,-0.008591,-1.028229,0.038872,0.005791,0.012979,0.999157,0.013194,-0.038861,-0.012979,0.999899,0.005791,0.038934,-0.005282,0.999228,0.038861,-0.005791,-0.999228,0.004809,0.001229,-0.028696,0.006901,0.004092,0.002867,23.419695,27.882481,-1.000000,-1.000000,-1.000000
482149134.812900,0.035782,-0.004654,-1.027435,0.038872,0.005791,0.012979,0.999157,0.013194,-0.038861,-0.012979,0.999899,0.005791,0.038934,-0.005282,0.999228,0.038861,-0.005791,-0.999228,0.004809,0.001229,-0.028696,0.006901,0.004092,0.002867,23.419695,27.882481,-1.000000,-1.000000,-1.000000
482149134.823904,0.036835,-0.002655,-1.027390,0.038872,0.005791,0.012979,0.999157,0.013194,-0.038861,-0.012979,0.999899,0.005791,0.038934,-0.005282,0.999228,0.038861,-0.005791,-0.999228,0.004809,0.001229,-0.028696,0.006901,0.004092,0.002867,23.419695,27.882481,-1.000000,-1.000000,-1.000000
482149134.833845,0.036606,-0.003601,-1.023529,0.038872,0.005791,0.012979,0.999157,0.013194,-0.038861,-0.012979,0.999899,0.005791,0.038934,-0.005282,0.999228,0.038861,-0.005791,-0.999228,0.004809,0.001229,-0.028696,0.006901,0.004092,0.002867,23.419695,27.882481,-1.000000,-1.000000,-1.000000
482149134.843854,0.036774,-0.004639,-1.027374,0.038872,0.005791,0.012979,0.999157,0.013194,-0.038861,-0.012979,0.999899,0.005791,0.038934,-0.005282,0.999228,0.038861,-0.005791,-0.999228,0.004809,0.001229,-0.028696,0.006901,0.004092,0.002867,23.419695,27.882481,-1.000000,-1.000000,-1.000000
482149134.853871,0.040451,-0.009521,-1.025162,0.038872,0.005791,0.012979,0.999157,0.013194,-0.038861,-0.012979,0.999899,0.005791,0.038934,-0.005282,0.999228,0.038861,-0.005791,-0.999228,0.004809,0.001229,-0.028696,0.006901,0.004092,0.002867,23.419695,27.882481,-1.000000,-1.000000,-1.000000
482149134.863841,0.038696,-0.007584,-1.028183,0.038872,0.005791,0.012979,0.999157,0.013194,-0.038861,-0.012979,0.999899,0.005791,0.038934,-0.005282,0.999228,0.038861,-0.005791,-0.999228,0.004809,0.001229,-0.028696,0.006901,0.004092,0.002867,23.419695,27.882481,-1.000000,-1.000000,-1.000000
482149134.873844,0.048538,-0.005478,-1.027618,0.038872,0.005791,0.012979,0.999157,0.013194,-0.038861,-0.012979,0.999899,0.005791,0.038934,-0.005282,0.999228,0.038861,-0.005791,-0.999228,0.004809,0.001229,-0.028696,0.006901,0.004092,0.002867,23.419695,27.882481,-1.000000,-1.000000,-1.000000
482149134.883817,0.043686,-0.006561,-1.028870,0.038872,0.005791,0.012979,0.999157,0.013194,-0.038861,-0.012979,0.999899,0.005791,0.038934,-0.005282,0.999228,0.038861,-0.005791,-0.999228,0.004809,0.001229,-0.028696,0.006901,0.004092,0.002867,23.419695,27.882481,-1.000000,-1.000000,-1.000000
482149134.893474,0.043686,-0.006561,-1.028870,0.038872,0.005791,0.012979,0.999157,0.013194,-0.038861,-0.012979,0.999899,0.005791,0.038934,-0.005282,0.999228,0.038861,-0.005791,-0.999228,0.004809,0.001229,-0.028696,0.006901,0.004092,0.002867,23.419695,27.882481,-1.000000,-1.000000,-1.000000
482149134.903267,0.039597,-0.004593,-1.025269,0.038872,0.005791,0.012979,0.999157,0.013194,-0.038861,-0.012979,0.999899,0.005791,0.038934,-0.005282,0.999228,0.038861,-0.005791,-0.999228,0.004809,0.001229,-0.028696,0.006901,0.004092,0.002867,23.419695,27.882481,-1.000000,-1.000000,-1.000000
482149134.913842,0.040588,-0.006561,-1.026154,0.038872,0.005791,0.012979,0.999157,0.013194,-0.038861,-0.012979,0.999899,0.005791,0.038934,-0.005282,0.999228,0.038861,-0.005791,-0.999228,0.004809,0.001229,-0.028696,0.006901,0.004092,0.002867,23.419695,27.882481,-1.000000,-1.000000,-1.000000
482149134.923856,0.042404,-0.010483,-1.025024,0.038872,0.005791,0.012979,0.999157,0.013194,-0.038861,-0.012979,0.999899,0.005791,0.038934,-0.005282,0.999228,0.038861,-0.005791,-0.999228,0.004809,0.001229,-0.028696,0.006901,0.004092,0.002867,23.419695,27.882481,-1.000000,-1.000000,-1.000000
482149134.933843,0.032761,-0.006668,-1.026611,0.038872,0.005791,0.012979,0.999157,0.013194,-0.038861,-0.012979,0.999899,0.005791,0.038934,-0.005282,0.999228,0.038861,-0.005791,-0.999228,0.004809,0.001229,-0.028696,0.006901,0.004092,0.002867,23.419695,27.882481,-1.000000,-1.000000,-1.000000
482149134.943943,0.043503,-0.011475,-1.027847,0.038872,0.005791,0.012979,0.999157,0.013194,-0.038861,-0.012979,0.999899,0.005791,0.038934,-0.005282,0.999228,0.038861,-0.005791,-0.999228,0.004809,0.001229,-0.028696,0.006901,0.004092,0.002867,23.419695,27.882481,-1.000000,-1.000000,-1.000000
482149134.953856,0.047806,-0.006546,-1.032516,0.038872,0.005791,0.012979,0.999157,0.013194,-0.038861,-0.012979,0.999899,0.005791,0.038934,-0.005282,0.999228,0.038861,-0.005791,-0.999228,0.004809,0.001229,-0.028696,0.006901,0.004092,0.002867,23.419695,27.882481,-1.000000,-1.000000,-1.000000
482149134.963883,0.040634,-0.004578,-1.026184,0.038872,0.005791,0.012979,0.999157,0.013194,-0.038861,-0.012979,0.999899,0.005791,0.038934,-0.005282,0.999228,0.038861,-0.005791,-0.999228,0.004809,0.001229,-0.028696,0.006901,0.004092,0.002867,23.419695,27.882481,-1.000000,-1.000000,-1.000000
482149134.973861,0.038330,-0.008530,-1.021393,0.038872,0.005791,0.012979,0.999157,0.013194,-0.038861,-0.012979,0.999899,0.005791,0.038934,-0.005282,0.999228,0.038861,-0.005791,-0.999228,0.004809,0.001229,-0.028696,0.006901,0.004092,0.002867,23.419695,27.882481,-1.000000,-1.000000,-1.000000
482149134.983840,0.038879,-0.004654,-1.030151,0.038872,0.005791,0.012979,0.999157,0.013194,-0.038861,-0.012979,0.999899,0.005791,0.038934,-0.005282,0.999228,0.038861,-0.005791,-0.999228,0.004809,0.001229,-0.028696,0.006901,0.004092,0.002867,23.419695,27.882481,-1.000000,-1.000000,-1.000000
482149134.992961,0.036606,-0.005600,-1.024460,0.038872,0.005791,0.012979,0.999157,0.013194,-0.038861,-0.012979,0.999899,0.005791,0.038934,-0.005282,0.999228,0.038861,-0.005791,-0.999228,0.004809,0.001229,-0.028696,0.006901,0.004092,0.002867,23.419695,27.882481,-1.000000,-1.000000,-1.000000
482149135.003888,0.040070,-0.002487,-1.014587,0.038872,0.005791,0.012979,0.999157,0.013194,-0.038861,-0.012979,0.999899,0.005791,0.038934,-0.005282,0.999228,0.038861,-0.005791,-0.999228,0.004809,0.001229,-0.028696,0.006901,0.004092,0.002867,23.419695,27.882481,-1.000000,-1.000000,-1.000000
482149135.013597,0.040070,-0.002487,-1.014587,0.038872,0.005791,0.012979,0.999157,0.013194,-0.038861,-0.012979,0.999899,0.005791,0.038934,-0.005282,0.999228,0.038861,-0.005791,-0.999228,0.004809,0.001229,-0.028696,0.006901,0.004092,0.002867,23.419695,27.882481,-1.000000,-1.000000,-1.000000
482149135.023125,0.036041,-0.004700,-1.032272,0.038872,0.005791,0.012979,0.999157,0.013194,-0.038861,-0.012979,0.999899,0.005791,0.038934,-0.005282,0.999228,0.038861,-0.005791,-0.999228,0.004809,0.001229,-0.028696,0.006901,0.004092,0.002867,23.419695,27.882481,-1.000000,-1.000000,-1.000000
482149135.033721,0.043549,-0.003555,-1.025055,0.038872,0.005791,0.012979,0.999157,0.013194,-0.038861,-0.012979,0.999899,0.005791,0.038934,-0.005282,0.999228,0.038861,-0.005791,-0.999228,0.004809,0.001229,-0.028696,0.006901,0.004092,0.002867,23.419695,27.882481,-1.000000,-1.000000,-1.000000
482149135.043857,0.036682,-0.000641,-1.023560,0.038872,0.005791,0.012979,0.999157,0.013194,-0.038861,-0.012979,0.999899,0.005791,0.038934,-0.005282,0.999228,0.038861,-0.005791,-0.999228,0.004809,0.001229,-0.028696,0.006901,0.004092,0.002867,23.419695,27.882481,-1.000000,-1.000000,-1.000000
482149135.053963,0.040237,-0.010468,-1.021255,0.038872,0.005791,0.012979,0.999157,0.013194,-0.038861,-0.012979,0.999899,0.005791,0.038934,-0.005282,0.999228,0.038861,-0.005791,-0.999228,0.004809,0.001229,-0.028696,0.006901,0.004092,0.002867,23.419695,27.882481,-1.000000,-1.000000,-1.000000
482149135.063937,0.031876,0.000275,-1.025803,0.038872,0.005791,0.012979,0.999157,0.013194,-0.038861,-0.012979,0.999899,0.005791,0.038934,-0.005282,0.999228,0.038861,-0.005791,-0.999228,0.004809,0.001229,-0.028696,0.006901,0.004092,0.002867,23.419695,27.882481,-1.000000,-1.000000,-1.000000
482149135.073959,0.048309,-0.002457,-1.021851,0.038872,0.005791,0.012979,0.999157,0.013194,-0.038861,-0.012979,0.999899,0.005791,0.038934,-0.005282,0.999228,0.038861,-0.005791,-0.999228,0.004809,0.001229,-0.028696,0.006901,0.004092,0.002867,23.419695,27.882481,-1.000000,-1.000000,-1.000000
482149135.083917,0.041870,-0.002625,-1.029999,0.038872,0.005791,0.012979,0.999157,0.013194,-0.038861,-0.012979,0.999899,0.005791,0.038934,-0.005282,0.999228,0.038861,-0.005791,-0.999228,0.004809,0.001229,-0.028696,0.006901,0.004092,0.002867,23.419695,27.882481,-1.000000,-1.000000,-1.000000
482149135.093922,0.037216,-0.007690,-1.037033,0.038872,0.005791,0.012979,0.999157,0.013194,-0.038861,-0.012979,0.999899,0.005791,0.038934,-0.005282,0.999228,0.038861,-0.005791,-0.999228,0.004809,0.001229,-0.028696,0.006901,0.004092,0.002867,23.419695,27.882481,-1.000000,-1.000000,-1.000000
482149135.103959,0.040207,-0.009460,-1.020309,0.038872,0.005791,0.012979,0.999157,0.013194,-0.038861,-0.012979,0.999899,0.005791,0.038934,-0.005282,0.999228,0.038861,-0.005791,-0.999228,0.004809,0.001229,-0.028696,0.006901,0.004092,0.002867,23.419695,27.882481,-1.000000,-1.000000,-1.000000
482149135.113262,0.040207,-0.009460,-1.020309,0.038872,0.005791,0.012979,0.999157,0.013194,-0.038861,-0.012979,0.999899,0.005791,0.038934,-0.005282,0.999228,0.038861,-0.005791,-0.999228,0.004809,0.001229,-0.028696,0.006901,0.004092,0.002867,23.419695,27.882481,-1.000000,-1.000000,-1.000000
482149135.123957,0.037842,-0.002640,-1.028290,0.038872,0.005791,0.012979,0.999157,0.013194,-0.038861,-0.012979,0.999899,0.005791,0.038934,-0.005282,0.999228,0.038861,-0.005791,-0.999228,0.004809,0.001229,-0.028696,0.006901,0.004092,0.002867,23.419695,27.882481,-1.000000,-1.000000,-1.000000
482149135.133134,0.042511,-0.010498,-1.026947,0.038872,0.005791,0.012979,0.999157,0.013194,-0.038861,-0.012979,0.999899,0.005791,0.038934,-0.005282,0.999228,0.038861,-0.005791,-0.999228,0.004809,0.001229,-0.028696,0.006901,0.004092,0.002867,23.419695,27.882481,-1.000000,-1.000000,-1.000000
482149135.143929,0.029541,-0.008652,-1.022903,0.038872,0.005791,0.012979,0.999157,0.013194,-0.038861,-0.012979,0.999899,0.005791,0.038934,-0.005282,0.999228,0.038861,-0.005791,-0.999228,0.004809,0.001229,-0.028696,0.006901,0.004092,0.002867,23.419695,27.882481,-1.000000,-1.000000,-1.000000
482149135.153917,0.034668,-0.008621,-1.026489,0.038872,0.005791,0.012979,0.999157,0.013194,-0.038861,-0.012979,0.999899,0.005791,0.038934,-0.005282,0.999228,0.038861,-0.005791,-0.999228,0.004809,0.001229,-0.028696,0.006901,0.004092,0.002867,23.419695,27.882481,-1.000000,-1.000000,-1.000000
482149135.163921,0.037460,-0.011520,-1.025314,0.038872,0.005791,0.012979,0.999157,0.013194,-0.038861,-0.012979,0.999899,0.005791,0.038934,-0.005282,0.999228,0.038861,-0.005791,-0.999228,0.004809,0.001229,-0.028696,0.006901,0.004092,0.002867,23.419695,27.882481,-1.000000,-1.000000,-1.000000
482149135.173916,0.037933,-0.007446,-1.013672,0.038872,0.005791,0.012979,0.999157,0.013194,-0.038861,-0.012979,0.999899,0.005791,0.038934,-0.005282,0.999228,0.038861,-0.005791,-0.999228,0.004809,0.001229,-0.028696,0.006901,0.004092,0.002867,23.419695,27.882481,-1.000000,-1.000000,-1.000000
482149135.183932,0.035843,-0.006653,-1.029343,0.038872,0.005791,0.012979,0.999157,0.013194,-0.038861,-0.012979,0.999899,0.005791,0.038934,-0.005282,0.999228,0.038861,-0.005791,-0.999228,0.004809,0.001229,-0.028696,0.006901,0.004092,0.002867,23.419695,27.882481,-1.000000,-1.000000,-1.000000
482149135.193949,0.030914,-0.011658,-1.031525,0.038872,0.005791,0.012979,0.999157,0.013194,-0.038861,-0.012979,0.999899,0.005791,0.038934,-0.005282,0.999228,0.038861,-0.005791,-0.999228,0.004809,0.001229,-0.028696,0.006901,0.004092,0.002867,23.419695,27.882481,-1.000000,-1.000000,-1.000000
482149135.203923,0.043198,-0.007446,-1.020157,0.038872,0.005791,0.012979,0.999157,0.013194,-0.038861,-0.012979,0.999899,0.005791,0.038934,-0.005282,0.999228,0.038861,-0.005791,-0.999228,0.004809,0.001229,-0.028696,0.006901,0.004092,0.002867,23.419695,27.882481,-1.000000,-1.000000,-1.000000
482149135.213876,0.040710,-0.003601,-1.027161,0.038872,0.005791,0.012979,0.999157,0.013194,-0.038861,-0.012979,0.999899,0.005791,0.038934,-0.005282,0.999228,0.038861,-0.005791,-0.999228,0.004809,0.001229,-0.028696,0.006901,0.004092,0.002867,23.419695,27.882481,-1.000000,-1.000000,-1.000000
482149135.224045,0.040710,-0.003601,-1.027161,0.038872,0.005791,0.012979,0.999157,0.013194,-0.038861,-0.012979,0.999899,0.005791,0.038934,-0.005282,0.999228,0.038861,-0.005791,-0.999228,0.004809,0.001229,-0.028696,0.006901,0.004092,0.002867,23.419695,27.882481,-1.000000,-1.000000,-1.000000
482149135.233869,0.039764,-0.006607,-1.029099,0.038872,0.005791,0.012979,0.999157,0.013194,-0.038861,-0.012979,0.999899,0.005791,0.038934,-0.005282,0.999228,0.038861,-0.005791,-0.999228,0.004809,0.001229,-0.028696,0.006901,0.004092,0.002867,23.419695,27.882481,-1.000000,-1.000000,-1.000000
482149135.243921,0.037140,-0.002716,-1.033203,0.038872,0.005791,0.012979,0.999157,0.013194,-0.038861,-0.012979,0.999899,0.005791,0.038934,-0.005282,0.999228,0.038861,-0.005791,-0.999228,0.004809,0.001229,-0.028696,0.006901,0.004092,0.002867,23.419695,27.882481,-1.000000,-1.000000,-1.000000
482149135.254023,0.043320,-0.006500,-1.022095,0.038872,0.005791,0.012979,0.999157,0.013194,-0.038861,-0.012979,0.999899,0.005791,0.038934,-0.005282,0.999228,0.038861,-0.005791,-0.999228,0.004809,0.001229,-0.028696,0.006901,0.004092,0.002867,23.419695,27.882481,-1.000000,-1.000000,-1.000000
482149135.263988,0.054123,-0.003372,-1.020523,0.038872,0.005791,0.012979,0.999157,0.013194,-0.038861,-0.012979,0.999899,0.005791,0.038934,-0.005282,0.999228,0.038861,-0.005791,-0.999228,0.004809,0.001229,-0.028696,0.006901,0.004092,0.002867,23.419695,27.882481,-1.000000,-1.000000,-1.000000
482149135.273930,0.038177,-0.003708,-1.035080,0.040464,0.007324,-0.000131,0.999181,0.000165,-0.040452,0.000131,0.999973,0.007324,0.040452,-0.007323,0.999155,0.040452,-0.007324,-0.999155,0.002868,0.000824,-0.022940,-0.004114,-0.007081,0.003602,23.419695,27.882481,-1.000000,-1.000000,-1.000000
482149135.283873,0.040527,-0.006561,-1.025192,0.040465,0.007288,-0.000119,0.999181,0.000176,-0.040453,0.000119,0.999973,0.007288,0.040453,-0.007287,0.999155,0.040453,-0.007288,-0.999155,0.002867,0.000787,-0.022940,-0.002641,0.001227,-0.001132,23.419695,27.882481,-1.000000,-1.000000,-1.000000
482149135.293869,0.038239,-0.003525,-1.017578,0.040465,0.007288,-0.000119,0.999181,0.000176,-0.040453,0.000119,0.999973,0.007288,0.040453,-0.007287,0.999155,0.040453,-0.007288,-0.999155,0.002867,0.000787,-0.022940,-0.002641,0.001227,-0.001132,23.419695,27.882481,-1.000000,-1.000000,-1.000000
482149135.303916,0.043320,-0.004501,-1.021149,0.041423,0.006513,-0.000058,0.999142,0.000212,-0.041410,0.000058,0.999979,0.006513,0.041410,-0.006510,0.999121,0.041410,-0.006513,-0.999121,-0.003232,0.002805,-0.035959,-0.004386,0.002511,0.008160,23.419695,27.882481,-1.000000,-1.000000,-1.000000
482149135.313225,0.043320,-0.004501,-1.021149,0.041256,0.006495,-0.000028,0.999149,0.000240,-0.041244,0.000028,0.999979,0.006495,0.041244,-0.006490,0.999128,0.041244,-0.006495,-0.999128,-0.000716,-0.000067,-0.026064,0.002123,-0.001170,0.000323,23.419695,27.882481,-1.000000,-1.000000,-1.000000
482149135.323970,0.034836,-0.001678,-1.026566,0.041256,0.006495,-0.000028,0.999149,0.000240,-0.041244,0.000028,0.999979,0.006495,0.041244,-0.006490,0.999128,0.041244,-0.006495,-0.999128,-0.000716,-0.000067,-0.026064,0.002123,-0.001170,0.000323,23.419695,27.882481,-1.000000,-1.000000,-1.000000
482149135.333895,0.033463,-0.006607,-1.021698,0.040909,0.006245,0.000043,0.999163,0.000298,-0.040897,-0.000043,0.999981,0.006245,0.040898,-0.006238,0.999144,0.040897,-0.006245,-0.999144,-0.002659,0.002720,-0.018434,-0.001636,-0.001136,0.002477,23.419695,27.882481,-1.000000,-1.000000,-1.000000
482149135.343925,0.053146,-0.003372,-1.020584,0.041029,0.006095,0.000022,0.999158,0.000272,-0.041017,-0.000022,0.999981,0.006095,0.041018,-0.006089,0.999140,0.041017,-0.006095,-0.999140,0.002303,0.001593,-0.022009,-0.001570,-0.001145,0.001306,23.419695,27.882481,-1.000000,-1.000000,-1.000000
482149135.353920,0.056580,-0.005432,-1.031021,0.039963,0.005814,0.000102,0.999202,0.000334,-0.039952,-0.000102,0.999983,0.005814,0.039953,-0.005806,0.999185,0.039952,-0.005814,-0.999185,-0.006489,-0.000793,-0.022513,0.001782,0.000065,0.006163,23.419695,27.882481,-1.000000,-1.000000,-1.000000
482149135.363883,0.043549,-0.007523,-1.026932,0.039963,0.005814,0.000102,0.999202,0.000334,-0.039952,-0.000102,0.999983,0.005814,0.039953,-0.005806,0.999185,0.039952,-0.005814,-0.999185,-0.006489,-0.000793,-0.022513,0.001782,0.000065,0.006163,23.419695,27.882481,-1.000000,-1.000000,-1.000000
482149135.373921,0.035385,-0.006561,-1.020630,0.040777,0.005625,0.000104,0.999169,0.000333,-0.040766,-0.000104,0.999984,0.005625,0.040767,-0.005616,0.999153,0.040766,-0.005625,-0.999153,0.012381,0.002253,-0.021431,-0.002918,0.003655,0.003521,23.419695,27.882481,-1.000000,-1.000000,-1.000000
482149135.383748,0.044312,-0.010452,-1.023926,0.041663,0.005645,0.000184,0.999132,0.000419,-0.041650,-0.000184,0.999984,0.005645,0.041652,-0.005632,0.999116,0.041650,-0.005645,-0.999116,0.014929,0.000213,-0.031905,-0.005467,0.001312,0.005770,23.419695,27.882481,-1.000000,-1.000000,-1.000000
482149135.394000,0.035782,-0.000687,-1.025558,0.041678,0.005768,0.000202,0.999132,0.000443,-0.041665,-0.000202,0.999983,0.005768,0.041667,-0.005754,0.999115,0.041665,-0.005768,-0.999115,0.001883,-0.001755,-0.027817,0.001917,-0.004707,0.003884,23.419695,27.882481,-1.000000,-1.000000,-1.000000
482149135.404044,0.050049,-0.007355,-1.019745,0.041678,0.005768,0.000202,0.999132,0.000443,-0.041665,-0.000202,0.999983,0.005768,0.041667,-0.005754,0.999115,0.041665,-0.005768,-0.999115,0.001883,-0.001755,-0.027817,0.001917,-0.004707,0.003884,23.419695,27.882481,-1.000000,-1.000000,-1.000000
482149135.413885,0.046021,-0.007584,-1.036499,0.041374,0.006089,0.000279,0.999144,0.000531,-0.041361,-0.000279,0.999981,0.006088,0.041364,-0.006072,0.999126,0.041361,-0.006088,-0.999126,0.002950,-0.004364,-0.024800,0.003161,-0.001648,0.006327,23.419695,27.882481,-1.000000,-1.000000,-1.000000
482149135.424018,0.046021,-0.007584,-1.036499,0.041028,0.005849,0.000279,0.999158,0.000519,-0.041015,-0.000279,0.999983,0.005849,0.041018,-0.005833,0.999141,0.041015,-0.005849,-0.999141,-0.005233,0.005162,-0.026417,0.001079,-0.002887,0.000361,23.419695,27.882481,-1.000000,-1.000000,-1.000000
482149135.433047,0.042206,-0.010437,-1.021133,0.041028,0.005849,0.000279,0.999158,0.000519,-0.041015,-0.000279,0.999983,0.005849,0.041018,-0.005833,0.999141,0.041015,-0.005849,-0.999141,-0.005233,0.005162,-0.026417,0.001079,-0.002887,0.000361,23.419695,27.882481,-1.000000,-1.000000,-1.000000
482149135.443975,0.042252,-0.006470,-1.020218,0.041414,0.005924,0.000373,0.999142,0.000618,-0.041402,-0.000373,0.999982,0.005924,0.041405,-0.005903,0.999125,0.041402,-0.005924,-0.999125,0.008647,-0.001431,-0.020620,0.004434,0.001917,0.005170,23.419695,27.882481,-1.000000,-1.000000,-1.000000
482149135.453919,0.044739,-0.005569,-1.029785,0.041516,0.005987,0.000413,0.999138,0.000661,-0.041503,-0.000413,0.999982,0.005987,0.041506,-0.005965,0.999120,0.041503,-0.005987,-0.999120,0.004517,-0.001596,-0.037379,-0.004019,-0.002820,0.004794,23.419695,27.882481,-1.000000,-1.000000,-1.000000
482149135.463926,0.062286,-0.006317,-1.027756,0.041472,0.006254,0.000409,0.999140,0.000668,-0.041459,-0.000409,0.999980,0.006254,0.041462,-0.006231,0.999121,0.041459,-0.006254,-0.999121,0.000793,-0.000216,-0.021097,0.004436,0.001918,0.005170,23.419695,27.882481,-1.000000,-1.000000,-1.000000
482149135.473916,0.025986,-0.004776,-1.028015,0.041472,0.006254,0.000409,0.999140,0.000668,-0.041459,-0.000409,0.999980,0.006254,0.041462,-0.006231,0.999121,0.041459,-0.006254,-0.999121,0.000793,-0.000216,-0.021097,0.004436,0.001918,0.005170,23.419695,27.882481,-1.000000,-1.000000,-1.000000
482149135.483918,0.020981,-0.002823,-1.025421,0.041582,0.006195,0.000453,0.999135,0.000710,-0.041569,-0.000453,0.999981,0.006194,0.041573,-0.006170,0.999116,0.041569,-0.006194,-0.999116,0.003170,0.000625,-0.030669,-0.002947,0.004358,0.007104,23.419695,27.882481,-1.000000,-1.000000,-1.000000
482149135.493916,0.036728,-0.002640,-1.025467,0.042369,0.006234,0.000502,0.999102,0.000765,-0.042356,-0.000502,0.999980,0.006233,0.042360,-0.006207,0.999083,0.042356,-0.006233,-0.999083,0.019930,-0.000084,-0.028673,0.008327,0.001870,0.000674,23.419695,27.882481,-1.000000,-1.000000,-1.000000
482149135.504019,0.060898,-0.006256,-1.020065,0.041666,0.006192,0.000520,0.999132,0.000777,-0.041653,-0.000520,0.999981,0.006192,0.041657,-0.006165,0.999113,0.041653,-0.006192,-0.999113,-0.015668,0.001416,-0.028902,0.000812,-0.002840,0.005046,23.419695,27.882481,-1.000000,-1.000000,-1.000000
482149135.514087,0.035492,-0.008774,-1.041977,0.041666,0.006192,0.000520,0.999132,0.000777,-0.041653,-0.000520,0.999981,0.006192,0.041657,-0.006165,0.999113,0.041653,-0.006192,-0.999113,-0.015668,0.001416,-0.028902,0.000812,-0.002840,0.005046,23.419695,27.882481,-1.000000,-1.000000,-1.000000
482149135.523832,0.031647,-0.005646,-1.023788,0.040688,0.005949,0.000612,0.999172,0.000853,-0.040676,-0.000612,0.999982,0.005949,0.040680,-0.005919,0.999155,0.040676,-0.005949,-0.999155,-0.003948,0.003309,-0.026312,-0.001674,-0.001638,0.006075,23.419695,27.882481,-1.000000,-1.000000,-1.000000
482149135.534007,0.031647,-0.005646,-1.023788,0.041372,0.005966,0.000616,0.999144,0.000862,-0.041360,-0.000616,0.999982,0.005965,0.041364,-0.005935,0.999126,0.041360,-0.005965,-0.999126,0.019538,-0.000291,-0.020939,0.004633,-0.000502,0.001688,23.419695,27.882481,-1.000000,-1.000000,-1.000000
482149135.543939,0.007065,-0.002960,-1.022369,0.041372,0.005966,0.000616,0.999144,0.000862,-0.041360,-0.000616,0.999982,0.005965,0.041364,-0.005935,0.999126,0.041360,-0.005965,-0.999126,0.019538,-0.000291,-0.020939,0.004633,-0.000502,0.001688,23.419695,27.882481,-1.000000,-1.000000,-1.000000
482149135.553924,0.052689,-0.006485,-1.032227,0.041131,0.005995,0.000638,0.999154,0.000883,-0.041119,-0.000637,0.999982,0.005995,0.041124,-0.005964,0.999136,0.041119,-0.005995,-0.999136,-0.005627,-0.002779,-0.042841,0.001048,0.000610,0.001502,23.419695,27.882481,-1.000000,-1.000000,-1.000000
482149135.563943,0.052475,-0.004440,-1.027405,0.040783,0.005961,0.000653,0.999168,0.000895,-0.040771,-0.000653,0.999982,0.005961,0.040775,-0.005929,0.999151,0.040771,-0.005961,-0.999151,-0.009124,0.000315,-0.024638,-0.001301,-0.000587,0.000221,23.419695,27.882481,-1.000000,-1.000000,-1.000000
482149135.573941,0.030609,-0.009430,-1.006302,0.039982,0.005846,0.000722,0.999200,0.000955,-0.039971,-0.000722,0.999983,0.005846,0.039976,-0.005813,0.999184,0.039971,-0.005846,-0.999184,0.012718,-0.000639,-0.033043,-0.004588,0.001940,0.015290,23.419695,27.882481,-1.000000,-1.000000,-1.000000
482149135.583955,0.049271,-0.005615,-1.041183,0.039982,0.005846,0.000722,0.999200,0.000955,-0.039971,-0.000722,0.999983,0.005846,0.039976,-0.005813,0.999184,0.039971,-0.005846,-0.999184,0.012718,-0.000639,-0.033043,-0.004588,0.001940,0.015290,23.419695,27.882481,-1.000000,-1.000000,-1.000000
482149135.593914,0.018173,-0.004883,-1.029449,0.040312,0.005752,0.000755,0.999187,0.000986,-0.040301,-0.000755,0.999983,0.005752,0.040306,-0.005717,0.999171,0.040301,-0.005752,-0.999171,0.012174,0.001312,-0.028234,-0.001434,-0.007731,0.002659,23.419695,27.882481,-1.000000,-1.000000,-1.000000
482149135.603914,0.078735,-0.010818,-1.006332,0.040005,0.005887,0.000799,0.999199,0.001034,-0.039994,-0.000799,0.999982,0.005886,0.039999,-0.005850,0.999183,0.039994,-0.005886,-0.999183,-0.009385,-0.003543,-0.007119,0.001047,0.002987,0.001470,23.419695,27.882481,-1.000000,-1.000000,-1.000000
482149135.613976,0.055145,-0.001572,-1.038940,0.040005,0.005887,0.000799,0.999199,0.001034,-0.039994,-0.000799,0.999982,0.005886,0.039999,-0.005850,0.999183,0.039994,-0.005886,-0.999183,-0.009385,-0.003543,-0.007119,0.001047,0.002987,0.001470,23.419695,27.882481,-1.000000,-1.000000,-1.000000
482149135.624010,0.031372,-0.010559,-1.020813,0.040238,0.005909,0.000801,0.999190,0.001038,-0.040226,-0.000801,0.999982,0.005909,0.040232,-0.005872,0.999173,0.040226,-0.005909,-0.999173,0.009044,0.000294,-0.042010,0.001182,0.000581,-0.000841,23.419695,27.882481,-1.000000,-1.000000,-1.000000
482149135.633999,0.031372,-0.010559,-1.020813,0.040668,0.005990,0.000841,0.999173,0.001084,-0.040656,-0.000841,0.999982,0.005990,0.040662,-0.005951,0.999155,0.040656,-0.005990,-0.999155,0.038079,-0.004829,-0.007177,-0.007473,-0.000538,0.002249,23.419695,27.882481,-1.000000,-1.000000,-1.000000
482149135.643919,0.009018,-0.002930,-1.022247,0.041033,0.005824,0.000857,0.999158,0.001096,-0.041021,-0.000857,0.999983,0.005824,0.041026,-0.005784,0.999141,0.041021,-0.005824,-0.999141,0.014125,0.004252,-0.039799,-0.002575,-0.001758,0.001345,23.419695,27.882481,-1.000000,-1.000000,-1.000000
482149135.653990,0.033508,-0.004623,-1.021729,0.041033,0.005824,0.000857,0.999158,0.001096,-0.041021,-0.000857,0.999983,0.005824,0.041026,-0.005784,0.999141,0.041021,-0.005824,-0.999141,0.014125,0.004252,-0.039799,-0.002575,-0.001758,0.001345,23.419695,27.882481,-1.000000,-1.000000,-1.000000
482149135.663899,0.027313,-0.002853,-1.033783,0.040724,0.005987,0.000806,0.999170,0.001049,-0.040712,-0.000806,0.999982,0.005987,0.040718,-0.005949,0.999153,0.040712,-0.005987,-0.999153,-0.009340,-0.004572,-0.021660,-0.002239,-0.000621,-0.004527,23.419695,27.882481,-1.000000,-1.000000,-1.000000
482149135.673918,0.039047,-0.010437,-1.017426,0.039794,0.005863,0.000830,0.999208,0.001062,-0.039783,-0.000830,0.999982,0.005863,0.039788,-0.005825,0.999191,0.039783,-0.005863,-0.999191,-0.030765,0.002933,-0.023056,-0.005125,-0.000550,0.003546,23.419695,27.882481,-1.000000,-1.000000,-1.000000
482149135.683970,0.028458,-0.002869,-1.036652,0.039223,0.005787,0.000849,0.999230,0.001076,-0.039213,-0.000849,0.999983,0.005787,0.039218,-0.005750,0.999214,0.039213,-0.005787,-0.999214,-0.011900,0.002934,-0.034569,0.003729,0.000536,-0.003058,23.419695,27.882481,-1.000000,-1.000000,-1.000000
482149135.693922,-0.021942,-0.011368,-1.035645,0.039223,0.005787,0.000849,0.999230,0.001076,-0.039213,-0.000849,0.999983,0.005787,0.039218,-0.005750,0.999214,0.039213,-0.005787,-0.999214,-0.011900,0.002934,-0.034569,0.003729,0.000536,-0.003058,23.419695,27.882481,-1.000000,-1.000000,-1.000000
482149135.703941,-0.006348,-0.002014,-1.010559,0.039226,0.005936,0.000858,0.999230,0.001090,-0.039216,-0.000858,0.999982,0.005936,0.039221,-0.005897,0.999213,0.039216,-0.005936,-0.999213,-0.000168,-0.004501,-0.018212,-0.001276,0.004131,0.000169,23.419695,27.882481,-1.000000,-1.000000,-1.000000
482149135.713924,0.049133,-0.006592,-1.039230,0.038927,0.005870,0.000892,0.999242,0.001120,-0.038917,-0.000892,0.999982,0.005870,0.038922,-0.005830,0.999225,0.038917,-0.005870,-0.999225,-0.010459,0.003001,-0.037426,-0.003558,0.001729,-0.002267,23.419695,27.882481,-1.000000,-1.000000,-1.000000
482149135.723923,0.061035,-0.005280,-1.022034,0.038927,0.005870,0.000892,0.999242,0.001120,-0.038917,-0.000892,0.999982,0.005870,0.038922,-0.005830,0.999225,0.038917,-0.005870,-0.999225,-0.010459,0.003001,-0.037426,-0.003558,0.001729,-0.002267,23.419695,27.882481,-1.000000,-1.000000,-1.000000
482149135.733531,0.061035,-0.005280,-1.022034,0.037328,0.005961,0.000909,0.999303,0.001131,-0.037319,-0.000909,0.999982,0.005961,0.037325,-0.005923,0.999286,0.037319,-0.005961,-0.999286,-0.059261,-0.005407,-0.036359,-0.000067,0.002910,0.000248,23.419695,27.882481,-1.000000,-1.000000,-1.000000
482149135.743606,0.049683,-0.001526,-1.028580,0.036497,0.005852,0.000924,0.999333,0.001137,-0.036488,-0.000924,0.999982,0.005851,0.036494,-0.005814,0.999317,0.036488,-0.005851,-0.999317,0.012645,-0.000740,-0.039913,-0.005033,0.000554,0.002371,23.419695,27.882481,-1.000000,-1.000000,-1.000000
482149135.753956,0.026810,-0.010712,-1.027878,0.037097,0.005839,0.000918,0.999311,0.001134,-0.037088,-0.000918,0.999983,0.005839,0.037094,-0.005801,0.999295,0.037088,-0.005839,-0.999295,0.023947,0.000559,-0.022739,0.001140,0.000515,0.000343,23.419695,27.882481,-1.000000,-1.000000,-1.000000
482149135.763966,0.039383,-0.005539,-1.021362,0.037097,0.005839,0.000918,0.999311,0.001134,-0.037088,-0.000918,0.999983,0.005839,0.037094,-0.005801,0.999295,0.037088,-0.005839,-0.999295,0.023947,0.000559,-0.022739,0.001140,0.000515,0.000343,23.419695,27.882481,-1.000000,-1.000000,-1.000000
482149135.774025,0.066269,-0.008270,-1.029449,0.037387,0.005745,0.001024,0.999300,0.001238,-0.037378,-0.001024,0.999983,0.005745,0.037384,-0.005703,0.999285,0.037378,-0.005745,-0.999285,0.012305,0.004220,-0.029295,-0.001545,-0.000622,0.004917,23.419695,27.882481,-1.000000,-1.000000,-1.000000
482149135.784053,0.105118,-0.009689,-1.021271,0.037101,0.005851,0.001055,0.999311,0.001271,-0.037092,-0.001055,0.999982,0.005851,0.037099,-0.005808,0.999295,0.037092,-0.005851,-0.999295,-0.010282,-0.004860,-0.028583,-0.002416,-0.000674,-0.001002,23.419695,27.882481,-1.000000,-1.000000,-1.000000
482149135.793927,0.062027,-0.008270,-1.023880,0.037714,0.005892,0.001101,0.999288,0.001322,-0.037704,-0.001101,0.999982,0.005892,0.037711,-0.005846,0.999272,0.037704,-0.005892,-0.999272,0.028565,-0.002378,-0.030178,0.000002,-0.007836,-0.000781,23.419695,27.882481,-1.000000,-1.000000,-1.000000
482149135.804032,0.014267,-0.002945,-1.028732,0.037714,0.005892,0.001101,0.999288,0.001322,-0.037704,-0.001101,0.999982,0.005892,0.037711,-0.005846,0.999272,0.037704,-0.005892,-0.999272,0.028565,-0.002378,-0.030178,0.000002,-0.007836,-0.000781,23.419695,27.882481,-1.000000,-1.000000,-1.000000
482149135.813918,0.017975,-0.003647,-1.006165,0.037719,0.005892,0.001087,0.999288,0.001308,-0.037709,-0.001087,0.999982,0.005892,0.037716,-0.005847,0.999271,0.037709,-0.005892,-0.999271,0.067409,-0.003798,-0.021999,-0.001275,0.000535,0.000217,23.419695,27.882481,-1.000000,-1.000000,-1.000000
482149135.823914,0.044189,0.003494,-1.015366,0.037668,0.005883,0.001201,0.999290,0.001421,-0.037659,-0.001201,0.999982,0.005883,0.037666,-0.005834,0.999273,0.037659,-0.005883,-0.999273,0.024368,-0.002387,-0.024607,0.002282,-0.000663,0.001592,23.419695,27.882481,-1.000000,-1.000000,-1.000000
482149135.834075,0.026062,-0.003784,-1.028992,0.037668,0.005883,0.001201,0.999290,0.001421,-0.037659,-0.001201,0.999982,0.005883,0.037666,-0.005834,0.999273,0.037659,-0.005883,-0.999273,0.024368,-0.002387,-0.024607,0.002282,-0.000663,0.001592,23.419695,27.882481,-1.000000,-1.000000,-1.000000
482149135.843988,0.006424,-0.003052,-1.029205,0.037673,0.005893,0.001236,0.999289,0.001457,-0.037664,-0.001236,0.999982,0.005893,0.037672,-0.005842,0.999273,0.037664,-0.005893,-0.999273,-0.023397,0.002948,-0.029459,-0.000269,0.001755,0.003777,23.419695,27.882481,-1.000000,-1.000000,-1.000000
482149135.853494,0.006424,-0.003052,-1.029205,0.037089,0.005773,0.001260,0.999311,0.001474,-0.037080,-0.001260,0.999983,0.005773,0.037088,-0.005722,0.999296,0.037080,-0.005773,-0.999296,0.007110,0.009267,-0.016070,-0.007361,-0.004228,0.001145,23.419695,27.882481,-1.000000,-1.000000,-1.000000
482149135.863991,-0.010544,-0.003204,-1.024384,0.037044,0.005789,0.001302,0.999313,0.001515,-0.037035,-0.001302,0.999982,0.005788,0.037043,-0.005736,0.999297,0.037035,-0.005788,-0.999297,-0.010973,0.002004,-0.029694,0.004383,-0.004226,0.007629,23.419695,27.882481,-1.000000,-1.000000,-1.000000
482149135.873940,0.011841,-0.006866,-1.022034,0.037044,0.005789,0.001302,0.999313,0.001515,-0.037035,-0.001302,0.999982,0.005788,0.037043,-0.005736,0.999297,0.037035,-0.005788,-0.999297,-0.010973,0.002004,-0.029694,0.004383,-0.004226,0.007629,23.419695,27.882481,-1.000000,-1.000000,-1.000000
482149135.883952,0.047729,-0.001541,-1.028702,0.037053,0.005750,0.001274,0.999313,0.001486,-0.037044,-0.001274,0.999983,0.005750,0.037052,-0.005698,0.999297,0.037044,-0.005750,-0.999297,-0.030620,0.002698,-0.029908,-0.005886,-0.001888,-0.003510,23.419695,27.882481,-1.000000,-1.000000,-1.000000
482149135.893981,0.091141,-0.011780,-1.018188,0.035799,0.005669,0.001284,0.999358,0.001486,-0.035790,-0.001284,0.999983,0.005669,0.035798,-0.005619,0.999343,0.035790,-0.005669,-0.999343,-0.046334,0.002464,-0.025040,-0.001257,-0.000699,0.000240,23.419695,27.882481,-1.000000,-1.000000,-1.000000
482149135.903963,0.108841,-0.011780,-1.036560,0.035824,0.005601,0.001288,0.999357,0.001488,-0.035816,-0.001288,0.999983,0.005601,0.035824,-0.005552,0.999343,0.035816,-0.005601,-0.999343,0.011913,0.004060,-0.029359,0.003506,0.004066,0.001598,23.419695,27.882481,-1.000000,-1.000000,-1.000000
482149135.913913,0.057587,-0.012375,-1.034775,0.035824,0.005601,0.001288,0.999357,0.001488,-0.035816,-0.001288,0.999983,0.005601,0.035824,-0.005552,0.999343,0.035816,-0.005601,-0.999343,0.011913,0.004060,-0.029359,0.003506,0.004066,0.001598,23.419695,27.882481,-1.000000,-1.000000,-1.000000
482149135.923915,0.075928,-0.010101,-1.026886,0.035856,0.005601,0.001279,0.999356,0.001479,-0.035848,-0.001279,0.999983,0.005601,0.035856,-0.005552,0.999342,0.035848,-0.005601,-0.999342,0.055293,-0.006179,-0.018847,0.000151,0.001651,-0.003243,23.419695,27.882481,-1.000000,-1.000000,-1.000000
482149135.933914,0.097183,-0.009949,-1.038254,0.037673,0.005701,0.001252,0.999289,0.001466,-0.037664,-0.001252,0.999983,0.005701,0.037671,-0.005649,0.999274,0.037664,-0.005701,-0.999274,0.071177,-0.006079,-0.037286,-0.002731,-0.001821,0.004878,23.419695,27.882481,-1.000000,-1.000000,-1.000000
482149135.943859,0.066925,-0.006210,-1.022629,0.037673,0.005701,0.001252,0.999289,0.001466,-0.037664,-0.001252,0.999983,0.005701,0.037671,-0.005649,0.999274,0.037664,-0.005701,-0.999274,0.071177,-0.006079,-0.037286,-0.002731,-0.001821,0.004878,23.419695,27.882481,-1.000000,-1.000000,-1.000000
482149135.953922,-0.021896,0.001328,-1.049423,0.037705,0.005661,0.001260,0.999288,0.001472,-0.037696,-0.001260,0.999983,0.005661,0.037704,-0.005610,0.999273,0.037696,-0.005661,-0.999273,0.019891,-0.006714,-0.035502,-0.002465,0.004105,0.000113,23.419695,27.882481,-1.000000,-1.000000,-1.000000
482149135.963614,-0.021896,0.001328,-1.049423,0.037726,0.005682,0.001281,0.999287,0.001495,-0.037716,-0.001281,0.999983,0.005682,0.037724,-0.005630,0.999272,0.037716,-0.005682,-0.999272,0.059467,-0.004266,-0.038981,0.005858,-0.000684,0.002959,23.419695,27.882481,-1.000000,-1.000000,-1.000000
482149135.973948,-0.056305,-0.004639,-1.015472,0.038525,0.005747,0.001280,0.999257,0.001500,-0.038515,-0.001280,0.999983,0.005747,0.038523,-0.005694,0.999241,0.038515,-0.005747,-0.999241,0.028410,-0.000463,-0.023387,0.003776,0.004059,-0.003087,23.419695,27.882481,-1.000000,-1.000000,-1.000000
482149135.983882,0.023026,0.003143,-1.024429,0.038525,0.005747,0.001280,0.999257,0.001500,-0.038515,-0.001280,0.999983,0.005747,0.038523,-0.005694,0.999241,0.038515,-0.005747,-0.999241,0.028410,-0.000463,-0.023387,0.003776,0.004059,-0.003087,23.419695,27.882481,-1.000000,-1.000000,-1.000000
482149135.993934,0.028183,-0.005798,-1.032730,0.038546,0.005724,0.001295,0.999256,0.001515,-0.038536,-0.001295,0.999983,0.005724,0.038544,-0.005670,0.999241,0.038536,-0.005724,-0.999241,-0.060432,0.007052,-0.050182,-0.002515,-0.001855,0.001363,23.419695,27.882481,-1.000000,-1.000000,-1.000000
482149136.003922,-0.024765,0.001678,-1.013657,0.038562,0.005708,0.001276,0.999255,0.001495,-0.038552,-0.001276,0.999983,0.005708,0.038559,-0.005654,0.999240,0.038552,-0.005708,-0.999240,-0.094856,0.001069,-0.016232,0.000100,0.004071,-0.002104,23.419695,27.882481,-1.000000,-1.000000,-1.000000
482149136.013911,-0.034714,-0.007370,-1.016068,0.038593,0.005669,0.001275,0.999254,0.001493,-0.038583,-0.001275,0.999983,0.005669,0.038591,-0.005615,0.999239,0.038583,-0.005669,-0.999239,-0.010400,-0.000130,-0.033491,-0.006206,-0.000635,0.002330,23.419695,27.882481,-1.000000,-1.000000,-1.000000
482149136.023297,0.001236,-0.002258,-1.042160,0.038593,0.005669,0.001275,0.999254,0.001493,-0.038583,-0.001275,0.999983,0.005669,0.038591,-0.005615,0.999239,0.038583,-0.005669,-0.999239,-0.010400,-0.000130,-0.033491,-0.006206,-0.000635,0.002330,23.419695,27.882481,-1.000000,-1.000000,-1.000000
482149136.033868,0.032730,-0.007645,-1.026611,0.038598,0.005629,0.001283,0.999254,0.001499,-0.038588,-0.001283,0.999983,0.005629,0.038596,-0.005576,0.999239,0.038588,-0.005629,-0.999239,-0.063353,0.007308,-0.014417,-0.004797,0.001715,-0.001153,23.419695,27.882481,-1.000000,-1.000000,-1.000000
482149136.043881,0.061783,0.000748,-1.015259,0.038635,0.005566,0.001362,0.999252,0.001576,-0.038625,-0.001362,0.999984,0.005566,0.038633,-0.005510,0.999238,0.038625,-0.005566,-0.999238,-0.037389,0.003308,-0.042922,-0.002784,-0.000619,0.006032,23.419695,27.882481,-1.000000,-1.000000,-1.000000
482149136.053975,0.133606,-0.001572,-1.035202,0.038635,0.005566,0.001362,0.999252,0.001576,-0.038625,-0.001362,0.999984,0.005566,0.038633,-0.005510,0.999238,0.038625,-0.005566,-0.999238,-0.037389,0.003308,-0.042922,-0.002784,-0.000619,0.006032,23.419695,27.882481,-1.000000,-1.000000,-1.000000
482149136.063926,0.086792,-0.004807,-1.006882,0.038629,0.005527,0.001365,0.999253,0.001577,-0.038619,-0.001365,0.999984,0.005527,0.038627,-0.005470,0.999239,0.038619,-0.005527,-0.999239,-0.037383,0.003269,-0.042921,-0.002515,-0.001855,0.001363,23.419695,27.882481,-1.000000,-1.000000,-1.000000
482149136.073249,0.086792,-0.004807,-1.006882,0.038660,0.005555,0.001365,0.999252,0.001578,-0.038650,-0.001365,0.999984,0.005555,0.038658,-0.005498,0.999237,0.038650,-0.005555,-0.999237,0.023133,0.006302,-0.016021,0.008489,0.000465,-0.000446,23.419695,27.882481,-1.000000,-1.000000,-1.000000
482149136.083978,0.026337,0.007278,-1.010666,0.038632,0.005583,0.001352,0.999253,0.001566,-0.038622,-0.001352,0.999983,0.005583,0.038630,-0.005526,0.999238,0.038622,-0.005583,-0.999238,0.094984,0.004011,-0.035964,-0.001106,-0.003085,-0.002072,23.419695,27.882481,-1.000000,-1.000000,-1.000000
482149136.093950,0.113297,-0.004669,-1.024734,0.038632,0.005583,0.001352,0.999253,0.001566,-0.038622,-0.001352,0.999983,0.005583,0.038630,-0.005526,0.999238,0.038622,-0.005583,-0.999238,0.094984,0.004011,-0.035964,-0.001106,-0.003085,-0.002072,23.419695,27.882481,-1.000000,-1.000000,-1.000000
482149136.103910,0.147995,-0.010056,-1.013840,0.038542,0.005698,0.001392,0.999256,0.001611,-0.038532,-0.001392,0.999983,0.005698,0.038541,-0.005641,0.999241,0.038532,-0.005698,-0.999241,-0.012195,0.012977,-0.011425,0.007350,-0.006702,-0.001584,23.419695,27.882481,-1.000000,-1.000000,-1.000000
482149136.113926,0.043793,-0.010742,-1.051147,0.038552,0.005665,0.001367,0.999256,0.001585,-0.038542,-0.001367,0.999983,0.005665,0.038551,-0.005608,0.999241,0.038542,-0.005665,-0.999241,-0.012206,0.012944,-0.011425,-0.002316,0.005275,-0.002246,23.419695,27.882481,-1.000000,-1.000000,-1.000000
482149136.123969,-0.034134,-0.013214,-1.011108,0.038551,0.005615,0.001394,0.999256,0.001609,-0.038541,-0.001394,0.999983,0.005615,0.038549,-0.005557,0.999241,0.038541,-0.005615,-0.999241,0.109454,-0.004441,-0.014598,-0.004662,-0.005468,-0.003400,23.419695,27.882481,-1.000000,-1.000000,-1.000000
482149136.133918,-0.042267,-0.015457,-1.025177,0.038551,0.005615,0.001394,0.999256,0.001609,-0.038541,-0.001394,0.999983,0.005615,0.038549,-0.005557,0.999241,0.038541,-0.005615,-0.999241,0.109454,-0.004441,-0.014598,-0.004662,-0.005468,-0.003400,23.419695,27.882481,-1.000000,-1.000000,-1.000000
482149136.143926,0.020538,-0.002136,-1.053635,0.038496,0.005592,0.001413,0.999258,0.001627,-0.038485,-0.001413,0.999983,0.005592,0.038494,-0.005533,0.999243,0.038485,-0.005592,-0.999243,0.005307,-0.005150,-0.051904,-0.000288,-0.007812,0.005075,23.419695,27.882481,-1.000000,-1.000000,-1.000000
482149136.153943,0.056641,-0.018158,-1.019211,0.038510,0.005581,0.001423,0.999257,0.001637,-0.038500,-0.001423,0.999983,0.005581,0.038509,-0.005522,0.999243,0.038500,-0.005581,-0.999243,-0.080767,-0.009877,-0.025934,-0.007136,0.002897,-0.002473,23.419695,27.882481,-1.000000,-1.000000,-1.000000
482149136.163571,-0.042175,-0.000763,-1.038956,0.038510,0.005581,0.001423,0.999257,0.001637,-0.038500,-0.001423,0.999983,0.005581,0.038509,-0.005522,0.999243,0.038500,-0.005581,-0.999243,-0.080767,-0.009877,-0.025934,-0.007136,0.002897,-0.002473,23.419695,27.882481,-1.000000,-1.000000,-1.000000
482149136.173895,-0.029999,-0.011642,-1.050705,0.038504,0.005519,0.001425,0.999258,0.001637,-0.038494,-0.001425,0.999984,0.005519,0.038502,-0.005460,0.999244,0.038494,-0.005519,-0.999244,-0.080761,-0.009938,-0.025933,-0.004920,-0.003049,0.001246,23.419695,27.882481,-1.000000,-1.000000,-1.000000
482149136.183830,-0.029999,-0.011642,-1.050705,0.038497,0.005508,0.001430,0.999258,0.001641,-0.038487,-0.001430,0.999984,0.005508,0.038495,-0.005449,0.999244,0.038487,-0.005508,-0.999244,0.018154,-0.012650,-0.019967,0.004808,0.004061,0.000482,23.419695,27.882481,-1.000000,-1.000000,-1.000000
482149136.193984,-0.036743,-0.008362,-1.015228,0.038490,0.005519,0.001428,0.999258,0.001639,-0.038480,-0.001428,0.999984,0.005519,0.038489,-0.005460,0.999244,0.038480,-0.005519,-0.999244,-0.080656,0.004756,-0.039712,-0.003444,-0.001903,-0.003392,23.419695,27.882481,-1.000000,-1.000000,-1.000000
482149136.203878,0.070740,-0.010895,-1.003891,0.038490,0.005519,0.001428,0.999258,0.001639,-0.038480,-0.001428,0.999984,0.005519,0.038489,-0.005460,0.999244,0.038480,-0.005519,-0.999244,-0.080656,0.004756,-0.039712,-0.003444,-0.001903,-0.003392,23.419695,27.882481,-1.000000,-1.000000,-1.000000
482149136.213924,0.054947,-0.005707,-1.055420,0.038488,0.005549,0.001337,0.999258,0.001549,-0.038478,-0.001336,0.999984,0.005549,0.038486,-0.005493,0.999244,0.038478,-0.005549,-0.999244,-0.068477,-0.006094,-0.051461,-0.003511,-0.001892,-0.002221,23.419695,27.882481,-1.000000,-1.000000,-1.000000
482149136.223953,0.131622,-0.014313,-1.022537,0.038487,0.005516,0.001317,0.999258,0.001528,-0.038477,-0.001317,0.999984,0.005515,0.038485,-0.005461,0.999244,0.038477,-0.005515,-0.999244,-0.075220,-0.002846,-0.015984,-0.003513,0.004076,-0.002300,23.419695,27.882481,-1.000000,-1.000000,-1.000000
482149136.234037,0.031052,-0.009720,-1.033478,0.038519,0.005459,0.001364,0.999257,0.001574,-0.038509,-0.001364,0.999984,0.005459,0.038517,-0.005402,0.999243,0.038509,-0.005459,-0.999243,0.016438,-0.000248,-0.056177,-0.003580,0.002892,-0.001113,23.419695,27.882481,-1.000000,-1.000000,-1.000000
482149136.244013,0.098022,0.001022,-1.030579,0.038519,0.005459,0.001364,0.999257,0.001574,-0.038509,-0.001364,0.999984,0.005459,0.038517,-0.005402,0.999243,0.038509,-0.005459,-0.999243,0.016438,-0.000248,-0.056177,-0.003580,0.002892,-0.001113,23.419695,27.882481,-1.000000,-1.000000,-1.000000
482149136.253931,0.068069,-0.004227,-1.024536,0.038507,0.005464,0.001394,0.999257,0.001603,-0.038497,-0.001394,0.999984,0.005464,0.038505,-0.005406,0.999244,0.038497,-0.005464,-0.999244,0.093125,-0.008849,-0.023293,0.002058,0.001737,0.006244,23.419695,27.882481,-1.000000,-1.000000,-1.000000
482149136.263919,0.123779,-0.012634,-1.040512,0.038522,0.005530,0.001432,0.999257,0.001644,-0.038511,-0.001432,0.999984,0.005530,0.038520,-0.005470,0.999243,0.038511,-0.005530,-0.999243,0.059511,0.006552,-0.031336,0.000850,-0.000646,0.006213,23.419695,27.882481,-1.000000,-1.000000,-1.000000
482149136.273946,0.016647,-0.000015,-1.035446,0.038522,0.005530,0.001432,0.999257,0.001644,-0.038511,-0.001432,0.999984,0.005530,0.038520,-0.005470,0.999243,0.038511,-0.005530,-0.999243,0.059511,0.006552,-0.031336,0.000850,-0.000646,0.006213,23.419695,27.882481,-1.000000,-1.000000,-1.000000
482149136.284056,-0.004730,-0.013062,-1.027817,0.038510,0.005474,0.001456,0.999257,0.001666,-0.038500,-0.001456,0.999984,0.005474,0.038508,-0.005413,0.999244,0.038500,-0.005474,-0.999244,0.059523,0.006496,-0.031335,-0.006262,-0.001830,0.003510,23.419695,27.882481,-1.000000,-1.000000,-1.000000
482149136.294173,-0.004730,-0.013062,-1.027817,0.038486,0.005462,0.001461,0.999258,0.001670,-0.038476,-0.001461,0.999984,0.005462,0.038485,-0.005402,0.999245,0.038476,-0.005462,-0.999245,0.085303,-0.007172,-0.041267,-0.005852,-0.001900,-0.003529,23.419695,27.882481,-1.000000,-1.000000,-1.000000
482149136.303958,-0.058365,0.001099,-1.029266,0.038480,0.005384,0.001495,0.999258,0.001701,-0.038470,-0.001495,0.999984,0.005384,0.038479,-0.005322,0.999245,0.038470,-0.005384,-0.999245,-0.021823,0.005369,-0.036201,-0.008738,-0.000622,0.004528,23.419695,27.882481,-1.000000,-1.000000,-1.000000
482149136.313930,-0.028702,-0.000534,-1.033295,0.038480,0.005384,0.001495,0.999258,0.001701,-0.038470,-0.001495,0.999984,0.005384,0.038479,-0.005322,0.999245,0.038470,-0.005384,-0.999245,-0.021823,0.005369,-0.036201,-0.008738,-0.000622,0.004528,23.419695,27.882481,-1.000000,-1.000000,-1.000000
482149136.323915,0.047867,-0.006165,-0.996567,0.038517,0.005355,0.001537,0.999257,0.001742,-0.038507,-0.001537,0.999985,0.005355,0.038516,-0.005292,0.999244,0.038507,-0.005355,-0.999244,-0.096872,0.006454,-0.030022,-0.000082,-0.000689,0.001455,23.419695,27.882481,-1.000000,-1.000000,-1.000000
482149136.333924,-0.025467,0.003387,-1.037048,0.038532,0.005388,0.001556,0.999256,0.001762,-0.038522,-0.001556,0.999984,0.005388,0.038531,-0.005324,0.999243,0.038522,-0.005388,-0.999243,-0.096887,0.006487,-0.030023,0.004548,0.000515,0.005203,23.419695,27.882481,-1.000000,-1.000000,-1.000000
482149136.344190,-0.057922,-0.015671,-1.027084,0.038553,0.005393,0.001591,0.999255,0.001797,-0.038543,-0.001591,0.999984,0.005393,0.038552,-0.005328,0.999242,0.038543,-0.005393,-0.999242,-0.067245,0.004859,-0.034052,-0.005988,0.002895,-0.001250,23.419695,27.882481,-1.000000,-1.000000,-1.000000
482149136.353945,-0.068481,-0.006912,-1.027817,0.038531,0.005370,0.001626,0.999256,0.001831,-0.038521,-0.001626,0.999984,0.005370,0.038530,-0.005304,0.999243,0.038521,-0.005370,-0.999243,0.009346,-0.000794,0.002677,0.000925,-0.000663,0.005031,23.419695,27.882481,-1.000000,-1.000000,-1.000000
482149136.363925,0.050613,-0.005493,-1.029434,0.038552,0.005386,0.001677,0.999255,0.001883,-0.038542,-0.001676,0.999984,0.005386,0.038551,-0.005317,0.999242,0.038542,-0.005386,-0.999242,-0.064009,0.008774,-0.037806,0.002199,0.001709,0.003891,23.419695,27.882481,-1.000000,-1.000000,-1.000000
482149136.373980,0.084656,-0.008972,-1.024445,0.038594,0.005387,0.001649,0.999254,0.001855,-0.038584,-0.001649,0.999984,0.005387,0.038593,-0.005319,0.999241,0.038584,-0.005387,-0.999241,-0.107065,-0.001526,-0.028576,0.006224,0.002824,-0.002964,23.419695,27.882481,-1.000000,-1.000000,-1.000000
482149136.383882,0.058121,-0.007507,-1.042572,0.038594,0.005387,0.001649,0.999254,0.001855,-0.038584,-0.001649,0.999984,0.005387,0.038593,-0.005319,0.999241,0.038584,-0.005387,-0.999241,-0.107065,-0.001526,-0.028576,0.006224,0.002824,-0.002964,23.419695,27.882481,-1.000000,-1.000000,-1.000000
482149136.393855,0.025620,-0.005692,-1.021225,0.038576,0.005387,0.001630,0.999254,0.001836,-0.038566,-0.001630,0.999984,0.005387,0.038575,-0.005320,0.999242,0.038566,-0.005387,-0.999242,-0.107048,-0.001525,-0.028575,-0.004644,-0.003099,-0.003450,23.419695,27.882481,-1.000000,-1.000000,-1.000000
482149136.404090,0.025620,-0.005692,-1.021225,0.038536,0.005332,0.001592,0.999256,0.001796,-0.038526,-0.001592,0.999985,0.005332,0.038535,-0.005267,0.999243,0.038526,-0.005332,-0.999243,0.046130,-0.003640,-0.025201,-0.003368,-0.009082,-0.004479,23.419695,27.882481,-1.000000,-1.000000,-1.000000
482149136.413955,0.108978,-0.005661,-1.018173,0.038568,0.005310,0.001561,0.999255,0.001765,-0.038558,-0.001561,0.999985,0.005310,0.038567,-0.005246,0.999242,0.038558,-0.005310,-0.999242,0.019563,-0.002197,-0.043330,-0.002432,0.004084,0.000094,23.419695,27.882481,-1.000000,-1.000000,-1.000000
482149136.424139,0.102768,-0.002869,-1.029282,0.038568,0.005310,0.001561,0.999255,0.001765,-0.038558,-0.001561,0.999985,0.005310,0.038567,-0.005246,0.999242,0.038558,-0.005310,-0.999242,0.019563,-0.002197,-0.043330,-0.002432,0.004084,0.000094,23.419695,27.882481,-1.000000,-1.000000,-1.000000
482149136.433923,0.138687,-0.009094,-1.004700,0.038610,0.005311,0.001560,0.999253,0.001764,-0.038600,-0.001560,0.999985,0.005311,0.038608,-0.005246,0.999241,0.038600,-0.005311,-0.999241,0.070379,-0.000350,-0.018933,0.002273,0.001695,0.002707,23.419695,27.882481,-1.000000,-1.000000,-1.000000
482149136.443924,0.047958,-0.000610,-1.032593,0.038604,0.005255,0.001556,0.999253,0.001758,-0.038593,-0.001556,0.999985,0.005255,0.038602,-0.005191,0.999241,0.038593,-0.005255,-0.999241,0.070385,-0.000406,-0.018932,-0.005980,-0.003076,-0.001183,23.419695,27.882481,-1.000000,-1.000000,-1.000000
482149136.453907,0.030106,-0.012711,-1.035446,0.038625,0.005182,0.001579,0.999253,0.001778,-0.038615,-0.001579,0.999985,0.005182,0.038623,-0.005118,0.999241,0.038615,-0.005182,-0.999241,0.064153,0.002314,-0.030041,-0.009806,0.002939,0.002062,23.419695,27.882481,-1.000000,-1.000000,-1.000000
482149136.463976,-0.027557,0.001602,-1.016754,0.038630,0.005121,0.001581,0.999252,0.001777,-0.038619,-0.001580,0.999986,0.005121,0.038628,-0.005056,0.999241,0.038619,-0.005121,-0.999241,0.100068,-0.003973,-0.005459,-0.006115,0.001720,0.001096,23.419695,27.882481,-1.000000,-1.000000,-1.000000
482149136.473889,-0.043991,-0.007584,-1.026337,0.038651,0.005089,0.001544,0.999252,0.001740,-0.038640,-0.001544,0.999986,0.005089,0.038649,-0.005025,0.999240,0.038640,-0.005089,-0.999240,0.009318,0.004478,-0.033353,-0.002157,0.002846,-0.004588,23.419695,27.882481,-1.000000,-1.000000,-1.000000
482149136.483911,0.023575,-0.011871,-1.041672,0.038627,0.004995,0.001489,0.999253,0.001681,-0.038617,-0.001489,0.999986,0.004995,0.038625,-0.004934,0.999242,0.038617,-0.004995,-0.999242,-0.008511,-0.007715,-0.036205,0.000058,0.001673,-0.000933,23.419695,27.882481,-1.000000,-1.000000,-1.000000
482149136.494093,0.023575,-0.011871,-1.041672,0.038627,0.004995,0.001489,0.999253,0.001681,-0.038617,-0.001489,0.999986,0.004995,0.038625,-0.004934,0.999242,0.038617,-0.004995,-0.999242,-0.008511,-0.007715,-0.036205,0.000058,0.001673,-0.000933,23.419695,27.882481,-1.000000,-1.000000,-1.000000
482149136.504037,-0.047714,0.002274,-1.025726,0.038626,0.004989,0.001524,0.999253,0.001715,-0.038616,-0.001524,0.999986,0.004989,0.038624,-0.004927,0.999242,0.038616,-0.004989,-0.999242,-0.066173,0.006591,-0.017512,-0.001284,0.001700,0.001347,23.419695,27.882481,-1.000000,-1.000000,-1.000000
482149136.514006,-0.074478,-0.011932,-1.028107,0.038657,0.004956,0.001495,0.999251,0.001686,-0.038647,-0.001495,0.999987,0.004956,0.038655,-0.004895,0.999241,0.038647,-0.004956,-0.999241,-0.015072,-0.006915,-0.042431,-0.002357,-0.001897,-0.001011,23.419695,27.882481,-1.000000,-1.000000,-1.000000
482149136.524139,-0.061249,0.000061,-1.031372,0.038678,0.004917,0.001508,0.999251,0.001697,-0.038668,-0.001508,0.999987,0.004917,0.038676,-0.004855,0.999240,0.038668,-0.004917,-0.999240,-0.086382,0.007191,-0.026486,-0.004707,0.002877,-0.002371,23.419695,27.882481,-1.000000,-1.000000,-1.000000
482149136.533891,0.083282,-0.004150,-1.033356,0.038678,0.004917,0.001508,0.999251,0.001697,-0.038668,-0.001508,0.999987,0.004917,0.038676,-0.004855,0.999240,0.038668,-0.004917,-0.999240,-0.086382,0.007191,-0.026486,-0.004707,0.002877,-0.002371,23.419695,27.882481,-1.000000,-1.000000,-1.000000
482149136.543929,0.162918,-0.002975,-1.014008,0.038687,0.004890,0.001469,0.999250,0.001657,-0.038677,-0.001469,0.999987,0.004890,0.038684,-0.004830,0.999240,0.038677,-0.004890,-0.999240,-0.099926,0.004951,-0.032132,0.009787,0.002815,-0.001617,23.419695,27.882481,-1.000000,-1.000000,-1.000000
482149136.553912,0.097961,-0.002762,-1.013046,0.038702,0.004952,0.001472,0.999250,0.001662,-0.038692,-0.001472,0.999987,0.004952,0.038700,-0.004891,0.999239,0.038692,-0.004952,-0.999239,-0.099941,0.005013,-0.032133,0.004688,0.001685,0.002832,23.419695,27.882481,-1.000000,-1.000000,-1.000000
482149136.564702,0.044891,-0.005600,-1.032700,0.038702,0.004952,0.001472,0.999250,0.001662,-0.038692,-0.001472,0.999987,0.004952,0.038700,-0.004891,0.999239,0.038692,-0.004952,-0.999239,-0.099941,0.005013,-0.032133,0.004688,0.001685,0.002832,23.419695,27.882481,-1.000000,-1.000000,-1.000000
482149136.573333,0.131287,-0.007507,-1.031387,0.038738,0.005007,0.001504,0.999248,0.001697,-0.038728,-0.001504,0.999986,0.005007,0.038736,-0.004945,0.999237,0.038728,-0.005007,-0.999237,0.124190,0.002031,-0.014770,0.006969,0.004082,0.005269,23.419695,27.882481,-1.000000,-1.000000,-1.000000
482149136.583926,0.081863,-0.003082,-1.024689,0.038726,0.005051,0.001518,0.999249,0.001712,-0.038716,-0.001518,0.999986,0.005051,0.038724,-0.004988,0.999237,0.038716,-0.005051,-0.999237,0.059245,0.002289,-0.013809,0.001208,-0.003097,0.000351,23.419695,27.882481,-1.000000,-1.000000,-1.000000
482149136.593931,0.109131,-0.018600,-1.026749,0.038664,0.005091,0.001497,0.999251,0.001692,-0.038654,-0.001497,0.999986,0.005091,0.038662,-0.005029,0.999240,0.038654,-0.005091,-0.999240,0.006238,-0.000509,-0.033460,0.004025,-0.000783,-0.006583,23.419695,27.882481,-1.000000,-1.000000,-1.000000
482149136.603961,0.041092,-0.000702,-1.033005,0.038664,0.005091,0.001497,0.999251,0.001692,-0.038654,-0.001497,0.999986,0.005091,0.038662,-0.005029,0.999240,0.038654,-0.005091,-0.999240,0.006238,-0.000509,-0.033460,0.004025,-0.000783,-0.006583,23.419695,27.882481,-1.000000,-1.000000,-1.000000
482149136.613481,0.041092,-0.000702,-1.033005,0.038685,0.005124,0.001521,0.999250,0.001718,-0.038674,-0.001521,0.999986,0.005124,0.038683,-0.005061,0.999239,0.038674,-0.005124,-0.999239,0.092612,-0.002384,-0.032149,0.006911,0.001704,0.006457,23.419695,27.882481,-1.000000,-1.000000,-1.000000
482149136.623974,-0.003937,-0.014999,-1.024826,0.038683,0.005135,0.001515,0.999250,0.001712,-0.038672,-0.001515,0.999986,0.005135,0.038681,-0.005073,0.999239,0.038672,-0.005135,-0.999239,0.070459,-0.013465,-0.027510,-0.003424,0.004053,-0.003510,23.419695,27.882481,-1.000000,-1.000000,-1.000000
482149136.633921,-0.083450,-0.005447,-1.059830,0.038682,0.005135,0.001517,0.999251,0.001714,-0.038671,-0.001517,0.999986,0.005135,0.038680,-0.005073,0.999239,0.038671,-0.005135,-0.999239,0.002421,0.004433,-0.033766,-0.001208,-0.001893,0.000209,23.419695,27.882481,-1.000000,-1.000000,-1.000000
482149136.643923,-0.138062,-0.004807,-1.031036,0.038682,0.005135,0.001517,0.999251,0.001714,-0.038671,-0.001517,0.999986,0.005135,0.038680,-0.005073,0.999239,0.038671,-0.005135,-0.999239,0.002421,0.004433,-0.033766,-0.001208,-0.001893,0.000209,23.419695,27.882481,-1.000000,-1.000000,-1.000000
482149136.653923,0.026459,-0.010635,-1.021103,0.038707,0.005119,0.001510,0.999250,0.001707,-0.038697,-0.001510,0.999986,0.005119,0.038705,-0.005057,0.999238,0.038697,-0.005119,-0.999238,-0.122147,-0.000329,-0.060592,-0.002350,0.002875,-0.001089,23.419695,27.882481,-1.000000,-1.000000,-1.000000
482149136.663923,-0.007645,0.001602,-1.039841,0.038706,0.005120,0.001475,0.999250,0.001672,-0.038696,-0.001475,0.999986,0.005120,0.038704,-0.005059,0.999238,0.038696,-0.005120,-0.999238,-0.122146,-0.000328,-0.060592,-0.002082,0.001640,-0.005758,23.419695,27.882481,-1.000000,-1.000000,-1.000000
482149136.674154,-0.034744,-0.015503,-1.037354,0.038706,0.005120,0.001475,0.999250,0.001672,-0.038696,-0.001475,0.999986,0.005120,0.038704,-0.005059,0.999238,0.038696,-0.005120,-0.999238,-0.122146,-0.000328,-0.060592,-0.002082,0.001640,-0.005758,23.419695,27.882481,-1.000000,-1.000000,-1.000000
482149136.683785,0.059662,-0.010391,-1.035645,0.038715,0.005164,0.001469,0.999249,0.001668,-0.038704,-0.001469,0.999986,0.005164,0.038712,-0.005104,0.999237,0.038704,-0.005164,-0.999237,-0.012246,-0.005471,-0.021866,0.002147,-0.000673,0.005066,23.419695,27.882481,-1.000000,-1.000000,-1.000000
482149136.693966,0.115387,-0.013412,-1.012833,0.038735,0.005220,0.001498,0.999248,0.001699,-0.038725,-0.001498,0.999985,0.005220,0.038733,-0.005158,0.999236,0.038725,-0.005220,-0.999236,-0.046370,0.006822,-0.040604,0.001005,0.002902,0.003785,23.419695,27.882481,-1.000000,-1.000000,-1.000000
482149136.703924,0.194229,-0.002747,-1.029617,0.038657,0.005170,0.001498,0.999251,0.001697,-0.038647,-0.001498,0.999986,0.005170,0.038655,-0.005108,0.999240,0.038647,-0.005170,-0.999240,-0.073391,-0.010333,-0.038114,-0.003556,-0.003087,-0.001072,23.419695,27.882481,-1.000000,-1.000000,-1.000000
482149136.713986,0.242081,-0.010849,-1.008194,0.038657,0.005170,0.001498,0.999251,0.001697,-0.038647,-0.001498,0.999986,0.005170,0.038655,-0.005108,0.999240,0.038647,-0.005170,-0.999240,-0.073391,-0.010333,-0.038114,-0.003556,-0.003087,-0.001072,23.419695,27.882481,-1.000000,-1.000000,-1.000000
482149136.723928,0.242081,-0.010849,-1.008194,0.038667,0.005131,0.001521,0.999251,0.001718,-0.038657,-0.001521,0.999986,0.005131,0.038665,-0.005068,0.999239,0.038657,-0.005131,-0.999239,0.021005,-0.005261,-0.036405,-0.006174,-0.000658,0.002284,23.419695,27.882481,-1.000000,-1.000000,-1.000000
482149136.733969,0.051636,-0.001495,-1.028458,0.038665,0.005108,0.001574,0.999251,0.001770,-0.038655,-0.001574,0.999986,0.005108,0.038664,-0.005043,0.999240,0.038655,-0.005108,-0.999240,0.155574,0.002361,-0.030378,-0.001334,0.001709,0.002489,23.419695,27.882481,-1.000000,-1.000000,-1.000000
482149136.743935,0.119751,-0.009277,-0.999985,0.038675,0.005119,0.001592,0.999251,0.001789,-0.038665,-0.001592,0.999986,0.005119,0.038674,-0.005053,0.999239,0.038665,-0.005119,-0.999239,0.203416,-0.005730,-0.008955,-0.002407,-0.000695,0.000115,23.419695,27.882481,-1.000000,-1.000000,-1.000000
482149136.753919,0.115555,0.006241,-1.024734,0.038675,0.005119,0.001592,0.999251,0.001789,-0.038665,-0.001592,0.999986,0.005119,0.038674,-0.005053,0.999239,0.038665,-0.005119,-0.999239,0.203416,-0.005730,-0.008955,-0.002407,-0.000695,0.000115,23.419695,27.882481,-1.000000,-1.000000,-1.000000
482149136.763917,0.099197,-0.009750,-1.020645,0.038668,0.005134,0.001672,0.999251,0.001869,-0.038658,-0.001672,0.999985,0.005134,0.038667,-0.005066,0.999239,0.038658,-0.005134,-0.999239,0.081093,-0.004143,-0.000745,-0.003949,-0.003024,0.005941,23.419695,27.882481,-1.000000,-1.000000,-1.000000
482149136.773932,0.070953,-0.003983,-1.004929,0.038650,0.005113,0.001642,0.999251,0.001838,-0.038640,-0.001642,0.999986,0.005113,0.038649,-0.005046,0.999240,0.038640,-0.005113,-0.999240,0.081111,-0.004164,-0.000745,-0.004421,0.000446,-0.007054,23.419695,27.882481,-1.000000,-1.000000,-1.000000
482149136.783863,-0.006775,-0.003311,-1.039719,0.038650,0.005113,0.001642,0.999251,0.001838,-0.038640,-0.001642,0.999986,0.005113,0.038649,-0.005046,0.999240,0.038640,-0.005113,-0.999240,0.081111,-0.004164,-0.000745,-0.004421,0.000446,-0.007054,23.419695,27.882481,-1.000000,-1.000000,-1.000000
482149136.793916,-0.026764,-0.009293,-1.018509,0.038649,0.005036,0.001607,0.999252,0.001801,-0.038638,-0.001607,0.999986,0.005036,0.038647,-0.004970,0.999241,0.038638,-0.005036,-0.999241,0.060559,-0.004714,-0.021405,-0.004486,-0.004318,-0.005819,23.419695,27.882481,-1.000000,-1.000000,-1.000000
482149136.803933,-0.117249,0.004349,-1.029922,0.038620,0.005020,0.001583,0.999253,0.001775,-0.038610,-0.001583,0.999986,0.005020,0.038618,-0.004955,0.999242,0.038610,-0.005020,-0.999242,0.032343,0.001038,-0.005687,-0.001266,-0.003076,0.001381,23.419695,27.882481,-1.000000,-1.000000,-1.000000
482149136.813987,0.005814,-0.014862,-1.023270,0.038585,0.004982,0.001565,0.999254,0.001756,-0.038575,-0.001565,0.999986,0.004982,0.038583,-0.004918,0.999243,0.038575,-0.004982,-0.999243,-0.065339,-0.004311,-0.019266,-0.004757,0.002885,-0.001230,23.419695,27.882481,-1.000000,-1.000000,-1.000000
482149136.824417,-0.047714,0.000275,-1.026657,0.038585,0.004982,0.001565,0.999254,0.001756,-0.038575,-0.001565,0.999986,0.004982,0.038583,-0.004918,0.999243,0.038575,-0.004982,-0.999243,-0.065339,-0.004311,-0.019266,-0.004757,0.002885,-0.001230,23.419695,27.882481,-1.000000,-1.000000,-1.000000
482149136.833732,-0.047714,0.000275,-1.026657,0.038612,0.004999,0.001562,0.999253,0.001754,-0.038602,-0.001562,0.999986,0.004999,0.038610,-0.004935,0.999242,0.038602,-0.004999,-0.999242,-0.065365,-0.004294,-0.019267,0.001216,0.001677,0.000272,23.419695,27.882481,-1.000000,-1.000000,-1.000000
482149136.844024,-0.053848,-0.013657,-1.028809,0.038615,0.005005,0.001566,0.999253,0.001758,-0.038605,-0.001566,0.999986,0.005005,0.038613,-0.004941,0.999242,0.038605,-0.005005,-0.999242,-0.032791,-0.009857,-0.024028,0.000143,-0.001920,-0.002085,23.419695,27.882481,-1.000000,-1.000000,-1.000000
482149136.853901,-0.014908,0.001785,-1.014053,0.038614,0.004983,0.001573,0.999253,0.001764,-0.038604,-0.001573,0.999986,0.004983,0.038612,-0.004918,0.999242,0.038604,-0.004983,-0.999242,-0.086318,0.005257,-0.027415,-0.001267,0.000504,0.001334,23.419695,27.882481,-1.000000,-1.000000,-1.000000
482149136.863940,0.054092,-0.012314,-1.024307,0.038614,0.004983,0.001573,0.999253,0.001764,-0.038604,-0.001573,0.999986,0.004983,0.038612,-0.004918,0.999242,0.038604,-0.004983,-0.999242,-0.086318,0.005257,-0.027415,-0.001267,0.000504,0.001334,23.419695,27.882481,-1.000000,-1.000000,-1.000000
482149136.873912,0.152573,-0.004196,-1.023346,0.038634,0.004967,0.001556,0.999252,0.001746,-0.038624,-0.001556,0.999986,0.004967,0.038632,-0.004903,0.999241,0.038624,-0.004967,-0.999241,-0.053532,0.006752,-0.014812,-0.002541,-0.001867,0.002474,23.419695,27.882481,-1.000000,-1.000000,-1.000000
482149136.883958,0.226791,-0.009125,-1.015930,0.038650,0.004988,0.001585,0.999252,0.001776,-0.038639,-0.001585,0.999986,0.004988,0.038648,-0.004924,0.999241,0.038639,-0.004988,-0.999241,-0.053547,0.006774,-0.014813,0.004638,0.002887,0.003958,23.419695,27.882481,-1.000000,-1.000000,-1.000000
482149136.893918,0.094223,-0.005829,-1.018082,0.038650,0.004988,0.001585,0.999252,0.001776,-0.038639,-0.001585,0.999986,0.004988,0.038648,-0.004924,0.999241,0.038639,-0.004988,-0.999241,-0.053547,0.006774,-0.014813,0.004638,0.002887,0.003958,23.419695,27.882481,-1.000000,-1.000000,-1.000000
482149136.903929,0.118866,-0.006531,-1.019516,0.038620,0.005039,0.001574,0.999253,0.001767,-0.038610,-0.001574,0.999986,0.005039,0.038618,-0.004975,0.999242,0.038610,-0.005039,-0.999242,0.113963,0.000843,-0.024104,-0.002207,0.001661,-0.003430,23.419695,27.882481,-1.000000,-1.000000,-1.000000
482149136.914026,0.127823,-0.012405,-1.023758,0.038602,0.005078,0.001571,0.999254,0.001766,-0.038592,-0.001571,0.999986,0.005078,0.038601,-0.005014,0.999242,0.038592,-0.005078,-0.999242,0.188199,-0.004046,-0.016688,0.004840,-0.003113,0.000524,23.419695,27.882481,-1.000000,-1.000000,-1.000000
482149136.923268,0.093552,-0.010849,-1.025833,0.038589,0.005089,0.001619,0.999254,0.001814,-0.038579,-0.001619,0.999986,0.005089,0.038588,-0.005023,0.999243,0.038579,-0.005089,-0.999243,0.080287,-0.001442,-0.020273,-0.000127,0.002897,0.002536,23.419695,27.882481,-1.000000,-1.000000,-1.000000
482149136.933836,0.111053,-0.007645,-1.020950,0.038589,0.005089,0.001619,0.999254,0.001814,-0.038579,-0.001619,0.999986,0.005089,0.038588,-0.005023,0.999243,0.038579,-0.005089,-0.999243,0.080287,-0.001442,-0.020273,-0.000127,0.002897,0.002536,23.419695,27.882481,-1.000000,-1.000000,-1.000000
482149136.943839,-0.000610,0.000870,-1.024826,0.038583,0.005083,0.001653,0.999254,0.001848,-0.038573,-0.001653,0.999986,0.005083,0.038582,-0.005015,0.999243,0.038573,-0.005083,-0.999243,0.080293,-0.001448,-0.020273,0.000948,-0.000668,0.004989,23.419695,27.882481,-1.000000,-1.000000,-1.000000
482149136.953777,-0.000610,0.000870,-1.024826,0.038592,0.005117,0.001653,0.999254,0.001849,-0.038582,-0.001653,0.999986,0.005117,0.038591,-0.005049,0.999242,0.038582,-0.005117,-0.999242,0.054970,-0.005732,-0.026591,-0.001000,0.005236,-0.003415,23.419695,27.882481,-1.000000,-1.000000,-1.000000
482149136.963884,-0.019257,-0.012268,-1.031601,0.038591,0.005128,0.001660,0.999254,0.001857,-0.038581,-0.001660,0.999985,0.005128,0.038590,-0.005060,0.999242,0.038581,-0.005128,-0.999242,0.072473,-0.002517,-0.021708,0.007189,-0.003112,0.001821,23.419695,27.882481,-1.000000,-1.000000,-1.000000
482149136.973849,-0.092560,-0.000336,-1.034210,0.038591,0.005128,0.001660,0.999254,0.001857,-0.038581,-0.001660,0.999985,0.005128,0.038590,-0.005060,0.999242,0.038581,-0.005128,-0.999242,0.072473,-0.002517,-0.021708,0.007189,-0.003112,0.001821,23.419695,27.882481,-1.000000,-1.000000,-1.000000
482149136.983821,0.007889,-0.008896,-1.022247,0.038583,0.005156,0.001660,0.999254,0.001857,-0.038573,-0.001660,0.999985,0.005156,0.038582,-0.005088,0.999242,0.038573,-0.005156,-0.999242,-0.057830,-0.007112,-0.032358,-0.000127,0.001703,0.002552,23.419695,27.882481,-1.000000,-1.000000,-1.000000
482149136.993888,-0.095001,-0.007233,-1.028442,0.038598,0.005189,0.001673,0.999253,0.001872,-0.038588,-0.001673,0.999985,0.005189,0.038598,-0.005121,0.999242,0.038588,-0.005189,-0.999242,-0.131148,0.004854,-0.034968,0.006047,0.000463,0.000539,23.419695,27.882481,-1.000000,-1.000000,-1.000000
482149137.003904,-0.083710,-0.007202,-1.037460,0.038598,0.005189,0.001673,0.999253,0.001872,-0.038588,-0.001673,0.999985,0.005189,0.038598,-0.005121,0.999242,0.038588,-0.005189,-0.999242,-0.131148,0.004854,-0.034968,0.006047,0.000463,0.000539,23.419695,27.882481,-1.000000,-1.000000,-1.000000
482149137.013881,-0.051880,0.007034,-1.037674,0.038585,0.005239,0.001710,0.999254,0.001911,-0.038575,-0.001710,0.999985,0.005239,0.038585,-0.005169,0.999242,0.038575,-0.005239,-0.999242,-0.030686,-0.003657,-0.023005,-0.002475,0.000509,0.001271,23.419695,27.882481,-1.000000,-1.000000,-1.000000
482149137.023358,0.070007,-0.005005,-1.005951,0.038612,0.005212,0.001695,0.999253,0.001895,-0.038602,-0.001695,0.999985,0.005212,0.038611,-0.005142,0.999241,0.038602,-0.005212,-0.999241,-0.133603,-0.002021,-0.029201,-0.003617,0.002891,0.000005,23.419695,27.882481,-1.000000,-1.000000,-1.000000
482149137.033834,0.134018,-0.001450,-1.024490,0.038615,0.005190,0.001699,0.999253,0.001898,-0.038605,-0.001699,0.999985,0.005190,0.038615,-0.005120,0.999241,0.038605,-0.005190,-0.999241,-0.090485,0.012224,-0.038433,-0.003482,0.001676,-0.002322,23.419695,27.882481,-1.000000,-1.000000,-1.000000
482149137.043865,0.208160,-0.009567,-1.035507,0.038615,0.005190,0.001699,0.999253,0.001898,-0.038605,-0.001699,0.999985,0.005190,0.038615,-0.005120,0.999241,0.038605,-0.005190,-0.999241,-0.090485,0.012224,-0.038433,-0.003482,0.001676,-0.002322,23.419695,27.882481,-1.000000,-1.000000,-1.000000
482149137.053883,0.045029,-0.002426,-1.015228,0.038631,0.005167,0.001744,0.999252,0.001942,-0.038621,-0.001744,0.999985,0.005167,0.038630,-0.005096,0.999241,0.038621,-0.005167,-0.999241,0.031386,0.000162,-0.006710,-0.000529,0.001766,0.009579,23.419695,27.882481,-1.000000,-1.000000,-1.000000
482149137.063819,0.042572,-0.001556,-1.024155,0.038635,0.005128,0.001775,0.999252,0.001971,-0.038625,-0.001775,0.999985,0.005128,0.038634,-0.005055,0.999241,0.038625,-0.005128,-0.999241,0.095393,0.003678,-0.025250,0.002491,-0.000726,-0.000805,23.419695,27.882481,-1.000000,-1.000000,-1.000000
482149137.073888,0.134644,-0.007339,-1.020508,0.038639,0.005167,0.001761,0.999252,0.001959,-0.038629,-0.001761,0.999985,0.005167,0.038639,-0.005095,0.999240,0.038629,-0.005167,-0.999240,0.169531,-0.004400,-0.036267,-0.001066,-0.001915,-0.002148,23.419695,27.882481,-1.000000,-1.000000,-1.000000
482149137.083834,0.066971,-0.004227,-1.022659,0.038639,0.005167,0.001761,0.999252,0.001959,-0.038629,-0.001761,0.999985,0.005167,0.038639,-0.005095,0.999240,0.038629,-0.005167,-0.999240,0.169531,-0.004400,-0.036267,-0.001066,-0.001915,-0.002148,23.419695,27.882481,-1.000000,-1.000000,-1.000000
482149137.093765,0.066971,-0.004227,-1.022659,0.038632,0.005206,0.001788,0.999252,0.001987,-0.038621,-0.001788,0.999985,0.005206,0.038631,-0.005133,0.999240,0.038621,-0.005206,-0.999240,0.003951,0.003650,-0.024914,0.000947,0.001719,0.004957,23.419695,27.882481,-1.000000,-1.000000,-1.000000
482149137.103836,0.103088,-0.012695,-1.021362,0.038647,0.005217,0.001784,0.999251,0.001984,-0.038637,-0.001784,0.999985,0.005217,0.038647,-0.005144,0.999240,0.038637,-0.005217,-0.999240,0.096007,-0.002122,-0.021268,0.007321,0.002834,-0.000601,23.419695,27.882481,-1.000000,-1.000000,-1.000000
482149137.113826,0.004776,-0.001144,-1.034195,0.038647,0.005217,0.001784,0.999251,0.001984,-0.038637,-0.001784,0.999985,0.005217,0.038647,-0.005144,0.999240,0.038637,-0.005217,-0.999240,0.096007,-0.002122,-0.021268,0.007321,0.002834,-0.000601,23.419695,27.882481,-1.000000,-1.000000,-1.000000
482149137.123886,0.008041,-0.014877,-1.028000,0.038655,0.005285,0.001730,0.999251,0.001933,-0.038645,-0.001730,0.999985,0.005285,0.038655,-0.005215,0.999239,0.038645,-0.005285,-0.999239,0.028326,0.001059,-0.023420,0.004033,-0.000784,-0.006598,23.419695,27.882481,-1.000000,-1.000000,-1.000000
482149137.133826,-0.065048,-0.003967,-1.035416,0.038643,0.005269,0.001732,0.999252,0.001934,-0.038633,-0.001732,0.999985,0.005269,0.038643,-0.005198,0.999240,0.038633,-0.005269,-0.999240,0.064455,-0.007426,-0.022123,-0.003682,-0.001873,0.001240,23.419695,27.882481,-1.000000,-1.000000,-1.000000
482149137.143892,-0.019287,-0.007324,-1.028763,0.038625,0.005226,0.001693,0.999252,0.001893,-0.038615,-0.001693,0.999985,0.005226,0.038624,-0.005156,0.999241,0.038615,-0.005226,-0.999241,-0.030574,-0.009652,-0.028759,-0.003547,-0.005475,-0.001055,23.419695,27.882481,-1.000000,-1.000000,-1.000000
482149137.153910,0.034210,-0.010910,-1.055603,0.038625,0.005226,0.001693,0.999252,0.001893,-0.038615,-0.001693,0.999985,0.005226,0.038624,-0.005156,0.999241,0.038615,-0.005226,-0.999241,-0.030574,-0.009652,-0.028759,-0.003547,-0.005475,-0.001055,23.419695,27.882481,-1.000000,-1.000000,-1.000000
482149137.163761,-0.040878,-0.002808,-1.045639,0.038657,0.005214,0.001700,0.999251,0.001900,-0.038647,-0.001700,0.999985,0.005214,0.038656,-0.005145,0.999239,0.038647,-0.005214,-0.999239,-0.103695,0.001247,-0.036176,-0.002343,0.005262,-0.001136,23.419695,27.882481,-1.000000,-1.000000,-1.000000
482149137.173691,-0.055969,-0.013641,-1.026016,0.038671,0.005265,0.001704,0.999251,0.001907,-0.038661,-0.001704,0.999985,0.005265,0.038670,-0.005195,0.999238,0.038661,-0.005265,-0.999238,-0.004451,-0.005645,-0.056365,0.008596,0.000431,-0.001678,23.419695,27.882481,-1.000000,-1.000000,-1.000000
482149137.183945,0.050522,0.001480,-1.024689,0.038671,0.005265,0.001704,0.999251,0.001907,-0.038661,-0.001704,0.999985,0.005265,0.038670,-0.005195,0.999238,0.038661,-0.005265,-0.999238,-0.004451,-0.005645,-0.056365,0.008596,0.000431,-0.001678,23.419695,27.882481,-1.000000,-1.000000,-1.000000
482149137.193936,0.111954,-0.008591,-1.019897,0.038659,0.005277,0.001680,0.999251,0.001883,-0.038649,-0.001680,0.999985,0.005277,0.038658,-0.005208,0.999239,0.038649,-0.005277,-0.999239,-0.004439,-0.005634,-0.056364,-0.000058,-0.004276,0.001460,23.419695,27.882481,-1.000000,-1.000000,-1.000000
482149137.203963,0.187561,0.002106,-1.031067,0.038635,0.005228,0.001619,0.999252,0.001820,-0.038625,-0.001619,0.999985,0.005228,0.038634,-0.005162,0.999240,0.038625,-0.005228,-0.999240,-0.094594,-0.008413,-0.026776,0.000410,-0.000769,-0.006787,23.419695,27.882481,-1.000000,-1.000000,-1.000000
482149137.213849,0.187561,0.002106,-1.031067,0.038667,0.005301,0.001589,0.999251,0.001793,-0.038656,-0.001589,0.999985,0.005301,0.038665,-0.005236,0.999238,0.038656,-0.005301,-0.999238,0.011865,0.006781,-0.025450,0.009870,0.005190,-0.002850,23.419695,27.882481,-1.000000,-1.000000,-1.000000
482149137.223722,0.100906,-0.004700,-1.013809,0.038667,0.005301,0.001589,0.999251,0.001793,-0.038656,-0.001589,0.999985,0.005301,0.038665,-0.005236,0.999238,0.038656,-0.005301,-0.999238,0.011865,0.006781,-0.025450,0.009870,0.005190,-0.002850,23.419695,27.882481,-1.000000,-1.000000,-1.000000
482149137.233979,0.069794,-0.001160,-1.018646,0.038719,0.005280,0.001539,0.999249,0.001742,-0.038709,-0.001539,0.999985,0.005280,0.038718,-0.005216,0.999237,0.038709,-0.005280,-0.999237,0.148852,0.007386,-0.031830,-0.011804,0.002884,-0.005120,23.419695,27.882481,-1.000000,-1.000000,-1.000000
482149137.243932,0.149338,-0.005371,-1.037125,0.038740,0.005203,0.001507,0.999248,0.001708,-0.038730,-0.001507,0.999985,0.005203,0.038739,-0.005141,0.999236,0.038730,-0.005203,-0.999236,0.148831,0.007309,-0.031831,-0.008381,0.001707,-0.001402,23.419695,27.882481,-1.000000,-1.000000,-1.000000
482149137.253918,0.096222,-0.006592,-1.000473,0.038760,0.005258,0.001566,0.999247,0.001768,-0.038750,-0.001566,0.999985,0.005258,0.038759,-0.005193,0.999235,0.038750,-0.005258,-0.999235,0.031044,0.004098,-0.019411,0.002289,-0.000695,0.002709,23.419695,27.882481,-1.000000,-1.000000,-1.000000
482149137.263849,0.085846,-0.010971,-1.029205,0.038760,0.005258,0.001566,0.999247,0.001768,-0.038750,-0.001566,0.999985,0.005258,0.038759,-0.005193,0.999235,0.038750,-0.005258,-0.999235,0.031044,0.004098,-0.019411,0.002289,-0.000695,0.002709,23.419695,27.882481,-1.000000,-1.000000,-1.000000
482149137.273941,0.022690,-0.006943,-1.040817,0.038754,0.005270,0.001536,0.999248,0.001739,-0.038743,-0.001536,0.999985,0.005270,0.038752,-0.005206,0.999235,0.038743,-0.005270,-0.999235,0.110594,-0.000101,-0.037889,0.001483,-0.000753,-0.004381,0.000000,0.000000,-1.000000,-1.000000,-1.000000
482149137.283893,-0.016418,-0.008057,-1.009140,0.038774,0.005286,0.001572,0.999247,0.001776,-0.038763,-0.001572,0.999985,0.005286,0.038772,-0.005221,0.999234,0.038763,-0.005286,-0.999234,0.047083,-0.005685,-0.029971,-0.000128,0.004090,0.002519,0.000000,0.000000,-1.000000,-1.000000,-1.000000
482149137.294317,-0.048706,-0.005707,-1.029572,0.038774,0.005286,0.001572,0.999247,0.001776,-0.038763,-0.001572,0.999985,0.005286,0.038772,-0.005221,0.999234,0.038763,-0.005286,-0.999234,0.047083,-0.005685,-0.029971,-0.000128,0.004090,0.002519,0.000000,0.000000,-1.000000,-1.000000,-1.000000
482149137.303876,-0.119095,-0.000870,-1.053268,0.038788,0.005292,0.001564,0.999246,0.001768,-0.038778,-0.001564,0.999985,0.005292,0.038787,-0.005228,0.999234,0.038778,-0.005292,-0.999234,-0.016088,-0.001651,-0.041583,-0.006000,0.002809,-0.000129,23.467638,27.930424,-1.000000,-1.000000,-1.000000
482149137.313947,-0.003677,-0.008896,-1.008377,0.038790,0.005304,0.001595,0.999246,0.001799,-0.038780,-0.001595,0.999985,0.005304,0.038789,-0.005238,0.999234,0.038780,-0.005304,-0.999234,-0.055198,-0.002753,-0.009906,0.003530,-0.003179,0.002795,23.467638,27.930424,-1.000000,-1.000000,-1.000000
482149137.323938,-0.035355,0.001297,-1.036621,0.038788,0.005360,0.001603,0.999246,0.001810,-0.038778,-0.001603,0.999984,0.005360,0.038787,-0.005293,0.999233,0.038778,-0.005360,-0.999233,-0.087484,-0.000347,-0.030338,0.003663,0.001575,0.000389,23.467638,27.930424,-1.000000,-1.000000,-1.000000
482149137.333974,-0.035355,0.001297,-1.036621,0.038788,0.005360,0.001603,0.999246,0.001810,-0.038778,-0.001603,0.999984,0.005360,0.038787,-0.005293,0.999233,0.038778,-0.005360,-0.999233,-0.087484,-0.000347,-0.030338,0.003663,0.001575,0.000389,23.467638,27.930424,-1.000000,-1.000000,-1.000000
482149137.344000,-0.053299,-0.008591,-1.018158,0.038779,0.005293,0.001649,0.999246,0.001853,-0.038769,-0.001649,0.999985,0.005293,0.038778,-0.005225,0.999234,0.038769,-0.005293,-0.999234,-0.042446,-0.003603,-0.009143,-0.007341,-0.000746,0.002198,23.467638,27.930424,-1.000000,-1.000000,-1.000000
482149137.353942,0.031052,-0.003754,-1.030640,0.038794,0.005310,0.001662,0.999246,0.001867,-0.038783,-0.001662,0.999985,0.005310,0.038793,-0.005241,0.999234,0.038783,-0.005310,-0.999234,-0.042461,-0.003586,-0.009144,0.003595,0.002779,0.001545,23.469969,27.932755,-1.000000,-1.000000,-1.000000
482149137.363857,0.121948,-0.011475,-1.024124,0.038818,0.005327,0.001698,0.999245,0.001904,-0.038807,-0.001698,0.999984,0.005327,0.038817,-0.005257,0.999233,0.038807,-0.005327,-0.999233,-0.092106,-0.003264,-0.018925,0.003529,-0.000792,0.002763,23.469969,27.932755,-1.000000,-1.000000,-1.000000
482149137.373926,0.206268,-0.000473,-1.014359,0.038818,0.005327,0.001698,0.999245,0.001904,-0.038807,-0.001698,0.999984,0.005327,0.038817,-0.005257,0.999233,0.038807,-0.005327,-0.999233,-0.092106,-0.003264,-0.018925,0.003529,-0.000792,0.002763,23.469969,27.932755,-1.000000,-1.000000,-1.000000
482149137.383954,0.209961,-0.016281,-1.016846,0.038805,0.005355,0.001690,0.999245,0.001897,-0.038794,-0.001690,0.999984,0.005355,0.038804,-0.005286,0.999233,0.038794,-0.005355,-0.999233,-0.007743,0.001602,-0.031407,0.004804,-0.000807,0.001655,23.469969,27.932755,-1.000000,-1.000000,-1.000000
482149137.393926,0.069580,0.002625,-1.031326,0.038823,0.005428,0.001738,0.999245,0.001947,-0.038812,-0.001738,0.999984,0.005428,0.038822,-0.005356,0.999232,0.038812,-0.005428,-0.999232,0.167456,0.004955,-0.015127,0.007285,0.003946,0.000546,23.469969,27.932755,-1.000000,-1.000000,-1.000000
482149137.403885,0.165421,-0.011795,-1.009842,0.038823,0.005428,0.001738,0.999245,0.001947,-0.038812,-0.001738,0.999984,0.005428,0.038822,-0.005356,0.999232,0.038812,-0.005428,-0.999232,0.167456,0.004955,-0.015127,0.007285,0.003946,0.000546,23.469688,27.932472,-1.000000,-1.000000,-1.000000
482149137.413925,0.130096,0.000473,-1.023788,0.038832,0.005433,0.001762,0.999244,0.001971,-0.038821,-0.001762,0.999984,0.005433,0.038831,-0.005361,0.999231,0.038821,-0.005433,-0.999231,0.167447,0.004960,-0.015127,-0.003986,-0.000719,0.007071,23.469688,27.932472,-1.000000,-1.000000,-1.000000
482149137.423861,0.099838,-0.002716,-1.011002,0.038867,0.005383,0.001802,0.999243,0.002010,-0.038856,-0.001802,0.999984,0.005383,0.038867,-0.005309,0.999230,0.038856,-0.005383,-0.999230,0.030724,0.008008,-0.032096,-0.004859,0.001621,0.001121,23.469688,27.932472,-1.000000,-1.000000,-1.000000
482149137.433992,0.099838,-0.002716,-1.011002,0.038854,0.005334,0.001777,0.999243,0.001983,-0.038844,-0.001777,0.999984,0.005334,0.038854,-0.005261,0.999231,0.038844,-0.005334,-0.999231,0.126577,-0.006461,-0.010611,-0.002241,-0.003196,-0.002204,23.469688,27.932472,-1.000000,-1.000000,-1.000000
482149137.443814,0.078247,-0.003189,-1.030746,0.038854,0.005334,0.001777,0.999243,0.001983,-0.038844,-0.001777,0.999984,0.005334,0.038854,-0.005261,0.999231,0.038844,-0.005334,-0.999231,0.126577,-0.006461,-0.010611,-0.002241,-0.003196,-0.002204,23.469688,27.932472,-1.000000,-1.000000,-1.000000
482149137.454006,-0.003906,-0.005264,-1.039520,0.038812,0.005340,0.001814,0.999245,0.002020,-0.038802,-0.001814,0.999984,0.005340,0.038812,-0.005266,0.999233,0.038802,-0.005340,-0.999233,0.061036,0.002624,-0.011769,0.000981,-0.005535,0.005044,23.469202,27.931988,-1.000000,-1.000000,-1.000000
482149137.464124,-0.041595,-0.011612,-1.035858,0.038843,0.005296,0.001847,0.999244,0.002051,-0.038833,-0.001847,0.999984,0.005296,0.038843,-0.005220,0.999232,0.038833,-0.005296,-0.999232,0.061005,0.002580,-0.011770,-0.003786,0.004024,0.003494,23.469202,27.931988,-1.000000,-1.000000,-1.000000
482149137.474334,0.011139,-0.002945,-1.025055,0.038856,0.005274,0.001878,0.999243,0.002081,-0.038846,-0.001878,0.999984,0.005274,0.038856,-0.005197,0.999231,0.038846,-0.005274,-0.999231,-0.042752,0.000009,-0.040289,-0.007543,0.001673,0.005680,23.469202,27.931988,-1.000000,-1.000000,-1.000000
482149137.484050,0.001617,0.001038,-1.011093,0.038856,0.005274,0.001878,0.999243,0.002081,-0.038846,-0.001878,0.999984,0.005274,0.038856,-0.005197,0.999231,0.038846,-0.005274,-0.999231,-0.042752,0.000009,-0.040289,-0.007543,0.001673,0.005680,23.469202,27.931988,-1.000000,-1.000000,-1.000000
482149137.493881,-0.058578,-0.000824,-1.026337,0.038789,0.005230,0.001885,0.999246,0.002087,-0.038779,-0.001885,0.999985,0.005230,0.038789,-0.005153,0.999234,0.038779,-0.005230,-0.999234,-0.080374,-0.006382,-0.036624,-0.003515,-0.007954,-0.001032,23.469202,27.931988,-1.000000,-1.000000,-1.000000
482149137.503811,-0.066605,-0.007858,-1.026718,0.038807,0.005214,0.001900,0.999245,0.002101,-0.038797,-0.001900,0.999985,0.005214,0.038807,-0.005136,0.999233,0.038797,-0.005214,-0.999233,-0.037180,0.006251,-0.011860,0.001112,0.002799,0.002590,23.469202,27.931988,-1.000000,-1.000000,-1.000000
482149137.513978,-0.023712,-0.001297,-1.016479,0.038807,0.005214,0.001900,0.999245,0.002101,-0.038797,-0.001900,0.999985,0.005214,0.038807,-0.005136,0.999233,0.038797,-0.005214,-0.999233,-0.037180,0.006251,-0.011860,0.001112,0.002799,0.002590,23.474293,27.937077,-1.000000,-1.000000,-1.000000
482149137.523840,0.062225,-0.013260,-1.029617,0.038789,0.005164,0.001896,0.999246,0.002095,-0.038779,-0.001896,0.999985,0.005164,0.038789,-0.005087,0.999234,0.038779,-0.005164,-0.999234,-0.037161,0.006202,-0.011859,-0.005999,-0.001966,-0.000066,23.474293,27.937077,-1.000000,-1.000000,-1.000000
482149137.534030,0.062225,-0.013260,-1.029617,0.038747,0.005110,0.001862,0.999247,0.002059,-0.038737,-0.001862,0.999985,0.005110,0.038747,-0.005034,0.999236,0.038737,-0.005110,-0.999236,-0.105342,-0.002748,-0.027482,-0.004993,0.000448,0.003479,23.474293,27.937077,-1.000000,-1.000000,-1.000000
482149137.543816,0.155167,0.004868,-1.012619,0.038723,0.005099,0.001886,0.999248,0.002082,-0.038713,-0.001886,0.999985,0.005099,0.038723,-0.005022,0.999237,0.038713,-0.005099,-0.999237,-0.062425,0.003802,-0.017242,-0.000362,-0.003122,0.007292,23.474293,27.937077,-1.000000,-1.000000,-1.000000
482149137.553914,0.219940,-0.004272,-1.014465,0.038723,0.005099,0.001886,0.999248,0.002082,-0.038713,-0.001886,0.999985,0.005099,0.038723,-0.005022,0.999237,0.038713,-0.005099,-0.999237,-0.062425,0.003802,-0.017242,-0.000362,-0.003122,0.007292,23.474293,27.937077,-1.000000,-1.000000,-1.000000
482149137.563934,0.069870,-0.006165,-1.022461,0.038693,0.005077,0.001922,0.999249,0.002117,-0.038682,-0.001922,0.999985,0.005077,0.038693,-0.004999,0.999239,0.038682,-0.005077,-0.999239,0.023543,-0.008183,-0.030379,0.003865,-0.003232,-0.003061,23.478975,27.941761,-1.000000,-1.000000,-1.000000
482149137.573950,0.101456,-0.009781,-1.026337,0.038658,0.005128,0.001936,0.999251,0.002133,-0.038647,-0.001936,0.999985,0.005128,0.038658,-0.005049,0.999240,0.038647,-0.005128,-0.999240,0.116519,0.009995,-0.013379,0.003463,-0.006749,0.004014,23.478975,27.941761,-1.000000,-1.000000,-1.000000
482149137.584213,0.126984,-0.010437,-1.025787,0.038628,0.005139,0.001961,0.999252,0.002158,-0.038618,-0.001960,0.999985,0.005139,0.038629,-0.005059,0.999241,0.038618,-0.005139,-0.999241,0.181322,0.000866,-0.015225,-0.002577,-0.003143,0.003653,23.478975,27.941761,-1.000000,-1.000000,-1.000000
482149137.593536,0.076050,-0.011108,-1.029785,0.038610,0.005184,0.001953,0.999252,0.002151,-0.038600,-0.001953,0.999985,0.005184,0.038610,-0.005105,0.999241,0.038600,-0.005184,-0.999241,0.031270,-0.000981,-0.023220,0.006347,-0.004446,-0.004091,23.478975,27.941761,-1.000000,-1.000000,-1.000000
482149137.603911,-0.018112,-0.008316,-1.032562,0.038635,0.005212,0.001944,0.999251,0.002144,-0.038625,-0.001944,0.999985,0.005212,0.038636,-0.005133,0.999240,0.038625,-0.005212,-0.999240,0.062831,-0.004569,-0.027096,0.001313,0.003961,-0.000940,23.478975,27.941761,-1.000000,-1.000000,-1.000000
482149137.613937,-0.021332,-0.011307,-1.028839,0.038664,0.005273,0.001991,0.999250,0.002194,-0.038654,-0.001991,0.999984,0.005273,0.038665,-0.005192,0.999239,0.038654,-0.005273,-0.999239,0.088330,-0.005164,-0.026549,0.001180,-0.000792,0.001467,23.480877,27.943661,-1.000000,-1.000000,-1.000000
482149137.623864,-0.021332,-0.011307,-1.028839,0.038664,0.005273,0.001991,0.999250,0.002194,-0.038654,-0.001991,0.999984,0.005273,0.038665,-0.005192,0.999239,0.038654,-0.005273,-0.999239,0.088330,-0.005164,-0.026549,0.001180,-0.000792,0.001467,23.480877,27.943661,-1.000000,-1.000000,-1.000000
482149137.633989,-0.122452,-0.002823,-1.046661,0.038673,0.005246,0.001988,0.999250,0.002189,-0.038663,-0.001988,0.999984,0.005246,0.038674,-0.005165,0.999239,0.038663,-0.005246,-0.999239,0.037386,-0.005862,-0.030547,-0.001036,0.001574,-0.002205,23.480877,27.943661,-1.000000,-1.000000,-1.000000
482149137.643916,0.026764,-0.016663,-1.029755,0.038680,0.005331,0.001950,0.999250,0.002154,-0.038670,-0.001950,0.999984,0.005331,0.038681,-0.005252,0.999238,0.038670,-0.005331,-0.999238,-0.060002,-0.005976,-0.029601,0.001447,0.001553,-0.003250,23.480877,27.943661,-1.000000,-1.000000,-1.000000
482149137.653960,0.023346,-0.006866,-1.034943,0.038635,0.005276,0.001962,0.999251,0.002165,-0.038625,-0.001962,0.999984,0.005276,0.038635,-0.005196,0.999240,0.038625,-0.005276,-0.999240,-0.161076,0.002453,-0.047422,-0.005998,-0.007934,0.000014,23.480877,27.943661,-1.000000,-1.000000,-1.000000
482149137.663957,-0.063828,-0.002045,-1.039261,0.038635,0.005276,0.001962,0.999251,0.002165,-0.038625,-0.001962,0.999984,0.005276,0.038635,-0.005196,0.999240,0.038625,-0.005276,-0.999240,-0.161076,0.002453,-0.047422,-0.005998,-0.007934,0.000014,23.488329,27.951115,-1.000000,-1.000000,-1.000000
482149137.673926,-0.051956,-0.013626,-1.027725,0.038593,0.005192,0.002025,0.999253,0.002224,-0.038583,-0.002025,0.999984,0.005192,0.038594,-0.005110,0.999242,0.038583,-0.005192,-0.999242,-0.011819,-0.011470,-0.030513,-0.005059,-0.003123,0.004698,23.488329,27.951115,-1.000000,-1.000000,-1.000000
482149137.684079,-0.046997,0.006104,-1.037384,0.038624,0.005198,0.002048,0.999252,0.002247,-0.038614,-0.002048,0.999984,0.005198,0.038625,-0.005115,0.999241,0.038614,-0.005198,-0.999241,-0.015268,-0.001669,-0.035702,0.001246,0.002778,0.000248,23.488329,27.951115,-1.000000,-1.000000,-1.000000
482149137.693978,0.065674,-0.011124,-1.019730,0.038624,0.005198,0.002048,0.999252,0.002247,-0.038614,-0.002048,0.999984,0.005198,0.038625,-0.005115,0.999241,0.038614,-0.005198,-0.999241,-0.015268,-0.001669,-0.035702,0.001246,0.002778,0.000248,23.488329,27.951115,-1.000000,-1.000000,-1.000000
482149137.703918,0.129242,0.005417,-1.023911,0.038626,0.005160,0.002057,0.999252,0.002255,-0.038616,-0.002057,0.999985,0.005160,0.038627,-0.005076,0.999241,0.038616,-0.005160,-0.999241,-0.090572,-0.008466,-0.028484,-0.003585,0.000411,0.000028,23.488329,27.951115,-1.000000,-1.000000,-1.000000
482149137.713941,0.251404,-0.007645,-0.996979,0.038624,0.005188,0.002070,0.999252,0.002269,-0.038614,-0.002070,0.999984,0.005188,0.038625,-0.005104,0.999241,0.038614,-0.005188,-0.999241,-0.085611,0.011291,-0.038143,0.003662,0.000380,0.000405,23.491001,27.953785,-1.000000,-1.000000,-1.000000
482149137.723931,0.064941,-0.001434,-1.038361,0.038653,0.005205,0.002074,0.999250,0.002274,-0.038643,-0.002074,0.999984,0.005205,0.038655,-0.005121,0.999240,0.038643,-0.005205,-0.999240,0.027030,-0.005918,-0.020490,-0.001304,0.002809,0.002464,23.491001,27.953785,-1.000000,-1.000000,-1.000000
482149137.733971,0.064941,-0.001434,-1.038361,0.038653,0.005205,0.002074,0.999250,0.002274,-0.038643,-0.002074,0.999984,0.005205,0.038655,-0.005121,0.999240,0.038643,-0.005205,-0.999240,0.027030,-0.005918,-0.020490,-0.001304,0.002809,0.002464,23.491001,27.953785,-1.000000,-1.000000,-1.000000
482149137.743878,0.163330,-0.001053,-1.020798,0.038673,0.005250,0.002098,0.999250,0.002300,-0.038663,-0.002098,0.999984,0.005250,0.038675,-0.005165,0.999238,0.038663,-0.005250,-0.999238,0.090579,0.010667,-0.024672,0.003527,0.002788,0.002715,23.491001,27.953785,-1.000000,-1.000000,-1.000000
482149137.753956,0.091614,-0.000946,-1.022202,0.038659,0.005267,0.002124,0.999250,0.002326,-0.038649,-0.002124,0.999984,0.005267,0.038660,-0.005181,0.999239,0.038649,-0.005267,-0.999239,0.026293,0.003833,-0.039122,0.002322,-0.006755,0.002780,23.491001,27.953785,-1.000000,-1.000000,-1.000000
482149137.763945,0.095016,-0.011719,-1.016998,0.038652,0.005223,0.002120,0.999250,0.002321,-0.038641,-0.002120,0.999984,0.005223,0.038653,-0.005137,0.999240,0.038641,-0.005223,-0.999240,0.124689,0.004170,-0.021558,-0.006135,-0.000751,0.002260,23.490541,27.953327,-1.000000,-1.000000,-1.000000
482149137.774002,-0.005188,-0.001251,-1.031876,0.038652,0.005223,0.002120,0.999250,0.002321,-0.038641,-0.002120,0.999984,0.005223,0.038653,-0.005137,0.999240,0.038641,-0.005223,-0.999240,0.124689,0.004170,-0.021558,-0.006135,-0.000751,0.002260,23.490541,27.953327,-1.000000,-1.000000,-1.000000
482149137.783944,-0.011597,-0.013138,-1.028229,0.038659,0.005174,0.002118,0.999250,0.002317,-0.038649,-0.002118,0.999984,0.005174,0.038660,-0.005088,0.999239,0.038649,-0.005174,-0.999239,0.056368,-0.006545,-0.017759,-0.000901,-0.003222,-0.004483,23.490541,27.953327,-1.000000,-1.000000,-1.000000
482149137.793919,-0.091614,-0.001312,-1.034149,0.038668,0.005209,0.002077,0.999250,0.002277,-0.038658,-0.002077,0.999984,0.005209,0.038669,-0.005124,0.999239,0.038658,-0.005209,-0.999239,0.056359,-0.006510,-0.017759,0.002587,0.003945,-0.002048,23.490541,27.953327,-1.000000,-1.000000,-1.000000
482149137.803981,-0.050476,-0.006744,-1.033539,0.038668,0.005209,0.002077,0.999250,0.002277,-0.038658,-0.002077,0.999984,0.005209,0.038669,-0.005124,0.999239,0.038658,-0.005209,-0.999239,0.056359,-0.006510,-0.017759,0.002587,0.003945,-0.002048,23.490541,27.953327,-1.000000,-1.000000,-1.000000
482149137.814067,0.012558,-0.010986,-1.037491,0.038725,0.005159,0.002118,0.999248,0.002316,-0.038715,-0.002118,0.999984,0.005159,0.038726,-0.005073,0.999237,0.038715,-0.005159,-0.999237,-0.050311,-0.007979,-0.028992,-0.002646,0.001642,0.004760,23.490541,27.953327,-1.000000,-1.000000,-1.000000
482149137.823923,-0.122559,-0.008774,-1.047546,0.038729,0.005153,0.002136,0.999247,0.002334,-0.038718,-0.002136,0.999984,0.005153,0.038730,-0.005067,0.999237,0.038718,-0.005153,-0.999237,-0.130332,0.003841,-0.034912,0.002253,0.000417,0.003856,23.494139,27.956924,-1.000000,-1.000000,-1.000000
482149137.833927,-0.088882,-0.016144,-1.036697,0.038752,0.005115,0.002161,0.999246,0.002357,-0.038742,-0.002161,0.999985,0.005115,0.038754,-0.005027,0.999236,0.038742,-0.005115,-0.999236,-0.089218,-0.001630,-0.034303,-0.002444,-0.000777,0.001278,23.494139,27.956924,-1.000000,-1.000000,-1.000000
482149137.842949,-0.088882,-0.016144,-1.036697,0.038752,0.005115,0.002161,0.999246,0.002357,-0.038742,-0.002161,0.999985,0.005115,0.038754,-0.005027,0.999236,0.038742,-0.005115,-0.999236,-0.089218,-0.001630,-0.034303,-0.002444,-0.000777,0.001278,23.494139,27.956924,-1.000000,-1.000000,-1.000000
482149137.853981,-0.078781,0.004776,-1.032486,0.038756,0.005143,0.002168,0.999246,0.002366,-0.038746,-0.002168,0.999984,0.005143,0.038757,-0.005055,0.999236,0.038746,-0.005143,-0.999236,-0.026188,-0.005843,-0.038255,0.003461,0.000412,0.003919,23.494139,27.956924,-1.000000,-1.000000,-1.000000
482149137.863940,0.053452,-0.005417,-1.027328,0.038747,0.005144,0.002146,0.999247,0.002343,-0.038737,-0.002146,0.999984,0.005144,0.038748,-0.005057,0.999236,0.038736,-0.005144,-0.999236,-0.127619,-0.011000,-0.037461,-0.003384,0.000379,-0.003486,23.494139,27.956924,-1.000000,-1.000000,-1.000000
482149137.873912,0.148315,-0.007172,-1.018723,0.038739,0.005139,0.002142,0.999247,0.002340,-0.038729,-0.002142,0.999985,0.005139,0.038741,-0.005052,0.999237,0.038729,-0.005139,-0.999237,-0.117510,0.009915,-0.033249,-0.002042,-0.000840,-0.005750,23.500473,27.963257,-1.000000,-1.000000,-1.000000
482149137.884015,0.193039,-0.007690,-1.027695,0.038739,0.005139,0.002142,0.999247,0.002340,-0.038729,-0.002142,0.999985,0.005139,0.038741,-0.005052,0.999237,0.038729,-0.005139,-0.999237,-0.117510,0.009915,-0.033249,-0.002042,-0.000840,-0.005750,23.500473,27.963257,-1.000000,-1.000000,-1.000000
482149137.893932,0.081192,-0.000961,-1.011154,0.038796,0.005085,0.002112,0.999245,0.002308,-0.038786,-0.002112,0.999985,0.005085,0.038797,-0.004999,0.999235,0.038786,-0.005085,-0.999235,0.014666,-0.000332,-0.028094,-0.006136,0.004023,0.002197,23.500473,27.963257,-1.000000,-1.000000,-1.000000
482149137.904062,0.202164,-0.005447,-1.013580,0.038805,0.005075,0.002098,0.999245,0.002293,-0.038795,-0.002098,0.999985,0.005075,0.038806,-0.004989,0.999234,0.038795,-0.005075,-0.999234,0.109520,-0.002097,-0.019488,0.000305,0.002740,-0.004500,23.500473,27.963257,-1.000000,-1.000000,-1.000000
482149137.914262,0.140884,0.001617,-1.023163,0.038805,0.005075,0.002098,0.999245,0.002293,-0.038795,-0.002098,0.999985,0.005075,0.038806,-0.004989,0.999234,0.038795,-0.005075,-0.999234,0.109520,-0.002097,-0.019488,0.000305,0.002740,-0.004500,23.500473,27.963257,-1.000000,-1.000000,-1.000000
482149137.923922,0.100601,-0.008621,-1.009903,0.038790,0.005109,0.002113,0.999245,0.002310,-0.038780,-0.002113,0.999985,0.005109,0.038791,-0.005023,0.999235,0.038780,-0.005109,-0.999235,0.042412,0.004147,-0.011919,0.005944,-0.003190,0.002921,23.501534,27.964317,-1.000000,-1.000000,-1.000000
482149137.933928,0.029510,-0.003860,-1.038513,0.038789,0.005103,0.002132,0.999245,0.002328,-0.038778,-0.002132,0.999985,0.005103,0.038790,-0.005017,0.999235,0.038778,-0.005103,-0.999235,0.163385,-0.000344,-0.014346,0.002253,-0.000777,0.003872,23.501534,27.964317,-1.000000,-1.000000,-1.000000
482149137.943938,-0.016800,-0.001419,-1.035477,0.038763,0.005120,0.002174,0.999246,0.002371,-0.038753,-0.002174,0.999985,0.005120,0.038764,-0.005032,0.999236,0.038753,-0.005120,-0.999236,0.102132,0.006738,-0.023927,0.003393,0.002809,0.005058,23.501534,27.964317,-1.000000,-1.000000,-1.000000
482149137.953658,-0.016800,-0.001419,-1.035477,0.038763,0.005120,0.002174,0.999246,0.002371,-0.038753,-0.002174,0.999985,0.005120,0.038764,-0.005032,0.999236,0.038753,-0.005120,-0.999236,0.102132,0.006738,-0.023927,0.003393,0.002809,0.005058,23.501534,27.964317,-1.000000,-1.000000,-1.000000
482149137.963989,-0.092148,-0.000229,-1.023483,0.038734,0.005132,0.002171,0.999247,0.002368,-0.038723,-0.002171,0.999985,0.005132,0.038735,-0.005044,0.999237,0.038723,-0.005132,-0.999237,0.061878,-0.003489,-0.010666,0.002322,-0.006755,0.002780,23.501534,27.964317,-1.000000,-1.000000,-1.000000
482149137.973938,-0.161209,0.004745,-1.035492,0.038708,0.005114,0.002256,0.999248,0.002452,-0.038698,-0.002256,0.999984,0.005114,0.038710,-0.005023,0.999238,0.038698,-0.005114,-0.999238,-0.055498,0.003695,-0.036239,-0.002647,0.002835,0.004744,23.502998,27.965782,-1.000000,-1.000000,-1.000000
482149137.983932,-0.015564,-0.005234,-1.023697,0.038708,0.005114,0.002256,0.999248,0.002452,-0.038698,-0.002256,0.999984,0.005114,0.038710,-0.005023,0.999238,0.038698,-0.005114,-0.999238,-0.055498,0.003695,-0.036239,-0.002647,0.002835,0.004744,23.502998,27.965782,-1.000000,-1.000000,-1.000000
482149137.993949,-0.075607,0.008957,-1.015839,0.038723,0.005076,0.002257,0.999247,0.002452,-0.038713,-0.002257,0.999985,0.005076,0.038725,-0.004985,0.999237,0.038713,-0.005076,-0.999237,-0.130861,0.004847,-0.024246,-0.003519,0.002787,-0.001175,23.502998,27.965782,-1.000000,-1.000000,-1.000000
482149138.003910,-0.053146,-0.006653,-1.020111,0.038736,0.005054,0.002293,0.999247,0.002487,-0.038726,-0.002293,0.999985,0.005054,0.038738,-0.004961,0.999237,0.038726,-0.005054,-0.999237,-0.199935,0.009799,-0.036255,0.003394,-0.001965,0.005121,23.502998,27.965782,-1.000000,-1.000000,-1.000000
482149138.013919,-0.060516,-0.004044,-1.046799,0.038696,0.005049,0.002301,0.999248,0.002495,-0.038686,-0.002301,0.999985,0.005049,0.038698,-0.004956,0.999239,0.038686,-0.005049,-0.999239,-0.054250,-0.000185,-0.024458,-0.004657,-0.006767,-0.002282,23.502998,27.965782,-1.000000,-1.000000,-1.000000
482149138.023421,0.128265,-0.000351,-1.008347,0.038696,0.005049,0.002301,0.999248,0.002495,-0.038686,-0.002301,0.999985,0.005049,0.038698,-0.004956,0.999239,0.038686,-0.005049,-0.999239,-0.054250,-0.000185,-0.024458,-0.004657,-0.006767,-0.002282,23.505438,27.968224,-1.000000,-1.000000,-1.000000
482149138.033984,0.163925,-0.004166,-1.033356,0.038698,0.005022,0.002294,0.999248,0.002487,-0.038688,-0.002294,0.999985,0.005022,0.038699,-0.004930,0.999239,0.038688,-0.005022,-0.999239,-0.091834,-0.001631,-0.020872,-0.006001,-0.000773,-0.000082,23.505438,27.968224,-1.000000,-1.000000,-1.000000
482149138.044052,0.218674,-0.013962,-0.994980,0.038701,0.005045,0.002307,0.999248,0.002501,-0.038691,-0.002307,0.999985,0.005045,0.038703,-0.004951,0.999238,0.038691,-0.005045,-0.999238,-0.099208,0.001001,-0.047560,0.001179,0.000401,0.001451,23.505438,27.968224,-1.000000,-1.000000,-1.000000
482149138.053926,0.064728,0.004547,-1.031662,0.038730,0.005096,0.002285,0.999247,0.002480,-0.038720,-0.002284,0.999984,0.005096,0.038732,-0.005004,0.999237,0.038720,-0.005096,-0.999237,0.089545,0.004745,-0.009109,0.003729,-0.000824,-0.000751,23.505438,27.968224,-1.000000,-1.000000,-1.000000
482149138.063866,0.064728,0.004547,-1.031662,0.038730,0.005096,0.002285,0.999247,0.002480,-0.038720,-0.002284,0.999984,0.005096,0.038732,-0.005004,0.999237,0.038720,-0.005096,-0.999237,0.089545,0.004745,-0.009109,0.003729,-0.000824,-0.000751,23.505438,27.968224,-1.000000,-1.000000,-1.000000
482149138.073982,0.124847,-0.015427,-1.024857,0.038673,0.005119,0.002271,0.999249,0.002468,-0.038663,-0.002271,0.999984,0.005119,0.038675,-0.005027,0.999239,0.038663,-0.005119,-0.999239,0.125262,0.000953,-0.034117,0.006213,-0.006813,-0.001717,23.505438,27.968224,-1.000000,-1.000000,-1.000000
482149138.083955,0.114502,-0.002518,-1.009155,0.038582,0.005165,0.002250,0.999253,0.002448,-0.038571,-0.002250,0.999984,0.005165,0.038583,-0.005074,0.999242,0.038571,-0.005165,-0.999242,0.026156,0.009712,-0.032419,0.006010,0.000380,0.001702,23.502672,27.965458,-1.000000,-1.000000,-1.000000
482149138.093627,0.063019,-0.010422,-1.043198,0.038582,0.005165,0.002250,0.999253,0.002448,-0.038571,-0.002250,0.999984,0.005165,0.038583,-0.005074,0.999242,0.038571,-0.005165,-0.999242,0.026156,0.009712,-0.032419,0.006010,0.000380,0.001702,23.502672,27.965458,-1.000000,-1.000000,-1.000000
482149138.104098,0.054306,-0.012344,-1.028168,0.038591,0.005215,0.002274,0.999252,0.002474,-0.038580,-0.002274,0.999984,0.005215,0.038593,-0.005123,0.999242,0.038580,-0.005215,-0.999242,0.086267,-0.010212,-0.025615,0.006010,0.000380,0.001702,23.502672,27.965458,-1.000000,-1.000000,-1.000000
482149138.113852,-0.022308,-0.001358,-1.024155,0.038598,0.005293,0.002306,0.999252,0.002509,-0.038587,-0.002306,0.999983,0.005293,0.038600,-0.005200,0.999241,0.038587,-0.005293,-0.999241,0.075915,0.002775,-0.009914,0.007016,0.002794,0.005246,23.502672,27.965458,-1.000000,-1.000000,-1.000000
482149138.123983,-0.058594,-0.013947,-1.050446,0.038585,0.005260,0.002319,0.999253,0.002520,-0.038575,-0.002319,0.999983,0.005260,0.038587,-0.005166,0.999242,0.038575,-0.005260,-0.999242,0.024444,-0.005162,-0.043956,-0.006135,-0.003139,0.002292,23.502672,27.965458,-1.000000,-1.000000,-1.000000
482149138.133934,-0.154251,-0.001144,-1.039825,0.038585,0.005260,0.002319,0.999253,0.002520,-0.038575,-0.002319,0.999983,0.005260,0.038587,-0.005166,0.999242,0.038575,-0.005260,-0.999242,0.024444,-0.005162,-0.043956,-0.006135,-0.003139,0.002292,23.505991,27.968777,-1.000000,-1.000000,-1.000000
482149138.143903,0.025024,-0.010559,-1.012451,0.038565,0.005166,0.002344,0.999253,0.002541,-0.038555,-0.002343,0.999984,0.005166,0.038568,-0.005072,0.999243,0.038555,-0.005166,-0.999243,-0.060863,0.003808,-0.024912,-0.004861,0.001620,0.001120,23.505991,27.968777,-1.000000,-1.000000,-1.000000
482149138.153926,0.015045,0.003860,-1.040436,0.038547,0.005089,0.002329,0.999254,0.002523,-0.038537,-0.002329,0.999984,0.005089,0.038549,-0.004995,0.999244,0.038537,-0.005089,-0.999244,-0.097131,-0.008858,-0.051201,-0.010631,-0.003171,-0.003815,23.505991,27.968777,-1.000000,-1.000000,-1.000000
482149138.163951,-0.037018,-0.002548,-1.025986,0.038527,0.005129,0.002317,0.999255,0.002513,-0.038517,-0.002317,0.999984,0.005129,0.038529,-0.005036,0.999245,0.038517,-0.005129,-0.999245,-0.192768,0.003984,-0.040581,0.002587,-0.000830,-0.001985,23.505991,27.968777,-1.000000,-1.000000,-1.000000
482149138.173951,-0.037018,-0.002548,-1.025986,0.038527,0.005129,0.002317,0.999255,0.002513,-0.038517,-0.002317,0.999984,0.005129,0.038529,-0.005036,0.999245,0.038517,-0.005129,-0.999245,-0.192768,0.003984,-0.040581,0.002587,-0.000830,-0.001985,23.505991,27.968777,-1.000000,-1.000000,-1.000000
482149138.183268,-0.002518,0.002625,-1.043411,0.038552,0.005196,0.002309,0.999254,0.002508,-0.038542,-0.002309,0.999984,0.005196,0.038554,-0.005103,0.999243,0.038542,-0.005196,-0.999243,-0.013517,-0.005363,-0.013208,0.003594,0.001584,0.001560,23.511099,27.973885,-1.000000,-1.000000,-1.000000
482149138.193929,0.085114,-0.015808,-1.017532,0.038527,0.005140,0.002367,0.999255,0.002563,-0.038517,-0.002367,0.999984,0.005140,0.038529,-0.005045,0.999245,0.038517,-0.005140,-0.999245,-0.075535,0.002592,-0.026741,-0.003587,0.002798,-0.000004,23.511099,27.973885,-1.000000,-1.000000,-1.000000
482149138.203871,0.154831,-0.001022,-1.008667,0.038527,0.005140,0.002367,0.999255,0.002563,-0.038517,-0.002367,0.999984,0.005140,0.038529,-0.005045,0.999245,0.038517,-0.005140,-0.999245,-0.075535,0.002592,-0.026741,-0.003587,0.002798,-0.000004,23.511099,27.973885,-1.000000,-1.000000,-1.000000
482149138.213962,0.245819,-0.013947,-1.024445,0.038514,0.005157,0.002380,0.999255,0.002577,-0.038504,-0.002380,0.999984,0.005157,0.038516,-0.005062,0.999245,0.038504,-0.005157,-0.999245,-0.041022,0.007782,-0.044166,0.007151,-0.003195,0.002983,23.511099,27.973885,-1.000000,-1.000000,-1.000000
482149138.223926,0.109329,0.004227,-1.020233,0.038516,0.005148,0.002351,0.999255,0.002548,-0.038506,-0.002351,0.999984,0.005148,0.038518,-0.005053,0.999245,0.038506,-0.005148,-0.999245,0.046608,-0.010660,-0.018287,-0.010633,0.001603,-0.003879,23.511099,27.973885,-1.000000,-1.000000,-1.000000
482149138.233946,0.117218,-0.009583,-1.026367,0.038525,0.005154,0.002342,0.999255,0.002539,-0.038515,-0.002342,0.999984,0.005154,0.038527,-0.005060,0.999245,0.038515,-0.005154,-0.999245,0.116316,0.004131,-0.009422,0.002586,0.002751,-0.002032,23.510212,27.972996,-1.000000,-1.000000,-1.000000
482149138.243927,0.170746,-0.009811,-1.016373,0.038525,0.005154,0.002342,0.999255,0.002539,-0.038515,-0.002342,0.999984,0.005154,0.038527,-0.005060,0.999245,0.038515,-0.005154,-0.999245,0.116316,0.004131,-0.009422,0.002586,0.002751,-0.002032,23.510212,27.972996,-1.000000,-1.000000,-1.000000
482149138.253918,0.092468,-0.003906,-1.021133,0.038532,0.005143,0.002400,0.999254,0.002597,-0.038522,-0.002400,0.999984,0.005142,0.038535,-0.005046,0.999245,0.038522,-0.005142,-0.999245,0.070807,0.009369,-0.020989,-0.002513,0.000426,0.002433,23.510212,27.972996,-1.000000,-1.000000,-1.000000
482149138.263960,0.092255,-0.012817,-1.021027,0.038569,0.005122,0.002353,0.999253,0.002549,-0.038558,-0.002353,0.999984,0.005122,0.038571,-0.005027,0.999243,0.038558,-0.005122,-0.999243,0.078660,-0.004461,-0.027124,-0.003386,0.002766,-0.003518,23.510212,27.972996,-1.000000,-1.000000,-1.000000
482149138.273979,0.092255,-0.012817,-1.021027,0.038636,0.005094,0.002366,0.999250,0.002561,-0.038626,-0.002366,0.999984,0.005094,0.038639,-0.004999,0.999241,0.038626,-0.005094,-0.999241,0.132120,-0.004717,-0.017132,-0.006204,0.004033,0.003368,23.510212,27.972996,-1.000000,-1.000000,-1.000000
482149138.283869,-0.015030,0.001602,-1.030548,0.038636,0.005094,0.002366,0.999250,0.002561,-0.038626,-0.002366,0.999984,0.005094,0.038639,-0.004999,0.999241,0.038626,-0.005094,-0.999241,0.132120,-0.004717,-0.017132,-0.006204,0.004033,0.003368,23.510757,27.973541,-1.000000,-1.000000,-1.000000
482149138.293057,-0.032318,-0.009415,-1.024658,0.038623,0.005095,0.002363,0.999251,0.002558,-0.038613,-0.002363,0.999984,0.005095,0.038626,-0.005000,0.999241,0.038613,-0.005095,-0.999241,0.053855,0.001189,-0.021892,-0.001170,-0.003180,0.000201,23.510757,27.973541,-1.000000,-1.000000,-1.000000
482149138.303936,0.031052,0.002197,-1.027802,0.038691,0.005119,0.002356,0.999248,0.002552,-0.038681,-0.002356,0.999984,0.005119,0.038693,-0.005024,0.999238,0.038681,-0.005119,-0.999238,-0.053711,0.006721,-0.031310,-0.002217,0.005183,-0.002331,23.510757,27.973541,-1.000000,-1.000000,-1.000000
482149138.313953,0.028824,-0.008911,-1.046265,0.038691,0.005119,0.002356,0.999248,0.002552,-0.038681,-0.002356,0.999984,0.005119,0.038693,-0.005024,0.999238,0.038681,-0.005119,-0.999238,-0.053711,0.006721,-0.031310,-0.002217,0.005183,-0.002331,23.510757,27.973541,-1.000000,-1.000000,-1.000000
482149138.323918,-0.085114,-0.004135,-1.027878,0.038673,0.005064,0.002330,0.999249,0.002524,-0.038663,-0.002330,0.999984,0.005064,0.038675,-0.004970,0.999239,0.038663,-0.005064,-0.999239,-0.070981,-0.004351,-0.025419,-0.004629,-0.005549,-0.002313,23.510757,27.973541,-1.000000,-1.000000,-1.000000
482149138.333948,-0.054672,-0.011719,-1.030823,0.038698,0.005048,0.002376,0.999248,0.002570,-0.038687,-0.002376,0.999984,0.005048,0.038700,-0.004952,0.999239,0.038687,-0.005048,-0.999239,-0.007636,0.007245,-0.028563,-0.003691,0.001650,0.002339,23.514894,27.977680,-1.000000,-1.000000,-1.000000
482149138.344042,-0.073654,0.004807,-1.036057,0.038685,0.004999,0.002340,0.999249,0.002532,-0.038675,-0.002340,0.999985,0.004999,0.038687,-0.004905,0.999239,0.038675,-0.004999,-0.999239,-0.009851,-0.003912,-0.047025,-0.004497,0.000398,-0.004736,23.514894,27.977680,-1.000000,-1.000000,-1.000000
482149138.353927,0.040283,-0.014252,-1.005676,0.038685,0.004999,0.002340,0.999249,0.002532,-0.038675,-0.002340,0.999985,0.004999,0.038687,-0.004905,0.999239,0.038675,-0.004999,-0.999239,-0.009851,-0.003912,-0.047025,-0.004497,0.000398,-0.004736,23.514894,27.977680,-1.000000,-1.000000,-1.000000
482149138.363856,0.127899,-0.002670,-1.039429,0.038737,0.004979,0.002343,0.999247,0.002534,-0.038727,-0.002343,0.999985,0.004978,0.038739,-0.004884,0.999237,0.038727,-0.004978,-0.999237,-0.093399,-0.006740,-0.031585,-0.009664,0.002858,0.000837,23.514894,27.977680,-1.000000,-1.000000,-1.000000
482149138.374036,0.127899,-0.002670,-1.039429,0.038724,0.004930,0.002312,0.999247,0.002501,-0.038714,-0.002312,0.999985,0.004930,0.038726,-0.004837,0.999238,0.038714,-0.004930,-0.999238,-0.112368,0.009736,-0.036818,-0.001008,0.000404,-0.002205,23.514894,27.977680,-1.000000,-1.000000,-1.000000
482149138.383822,0.193665,-0.009583,-1.021805,0.038776,0.004992,0.002316,0.999245,0.002508,-0.038765,-0.002316,0.999985,0.004992,0.038777,-0.004899,0.999236,0.038765,-0.004992,-0.999236,0.001518,-0.009260,-0.006440,0.002616,0.001582,-0.002032,23.514894,27.977680,-1.000000,-1.000000,-1.000000
482149138.393966,0.070023,-0.006012,-1.006912,0.038776,0.004992,0.002316,0.999245,0.002508,-0.038765,-0.002316,0.999985,0.004992,0.038777,-0.004899,0.999236,0.038765,-0.004992,-0.999236,0.001518,-0.009260,-0.006440,0.002616,0.001582,-0.002032,23.518803,27.981586,-1.000000,-1.000000,-1.000000
482149138.403924,0.073669,-0.003098,-1.018387,0.038774,0.004987,0.002350,0.999245,0.002541,-0.038764,-0.002350,0.999985,0.004987,0.038776,-0.004892,0.999236,0.038764,-0.004987,-0.999236,0.089135,0.002316,-0.040193,-0.001342,-0.001931,0.003683,23.518803,27.981586,-1.000000,-1.000000,-1.000000
482149138.413926,0.193542,0.000366,-1.015137,0.038798,0.004984,0.002278,0.999244,0.002469,-0.038788,-0.002278,0.999985,0.004984,0.038799,-0.004892,0.999235,0.038788,-0.004984,-0.999235,0.031235,-0.001028,-0.007677,0.004966,-0.004386,-0.000656,23.518803,27.981586,-1.000000,-1.000000,-1.000000
482149138.423879,0.126221,-0.003357,-1.008438,0.038798,0.004984,0.002278,0.999244,0.002469,-0.038788,-0.002278,0.999985,0.004984,0.038799,-0.004892,0.999235,0.038788,-0.004984,-0.999235,0.031235,-0.001028,-0.007677,0.004966,-0.004386,-0.000656,23.518803,27.981586,-1.000000,-1.000000,-1.000000
482149138.433922,0.007416,-0.014969,-1.034836,0.038791,0.004980,0.002231,0.999245,0.002423,-0.038780,-0.002231,0.999985,0.004980,0.038792,-0.004890,0.999235,0.038780,-0.004980,-0.999235,0.034889,0.001882,-0.019151,-0.000807,-0.000821,-0.005703,23.518803,27.981586,-1.000000,-1.000000,-1.000000
482149138.443939,-0.013229,-0.011047,-1.014740,0.038777,0.004970,0.002267,0.999245,0.002458,-0.038766,-0.002267,0.999985,0.004970,0.038778,-0.004878,0.999236,0.038766,-0.004970,-0.999236,0.154776,0.005336,-0.015901,0.003757,-0.001993,-0.000751,23.520536,27.983322,-1.000000,-1.000000,-1.000000
482149138.453822,-0.095367,-0.007370,-1.040100,0.038786,0.004965,0.002264,0.999245,0.002454,-0.038776,-0.002264,0.999985,0.004965,0.038787,-0.004873,0.999236,0.038776,-0.004965,-0.999236,0.087445,0.001608,-0.009203,-0.000001,0.000430,0.001372,23.520536,27.983322,-1.000000,-1.000000,-1.000000
482149138.464206,-0.097351,-0.003418,-1.038330,0.038786,0.004965,0.002264,0.999245,0.002454,-0.038776,-0.002264,0.999985,0.004965,0.038787,-0.004873,0.999236,0.038776,-0.004965,-0.999236,0.087445,0.001608,-0.009203,-0.000001,0.000430,0.001372,23.520536,27.983322,-1.000000,-1.000000,-1.000000
482149138.473101,-0.097351,-0.003418,-1.038330,0.038772,0.004854,0.002315,0.999245,0.002501,-0.038762,-0.002315,0.999986,0.004854,0.038774,-0.004761,0.999237,0.038762,-0.004854,-0.999237,-0.051992,-0.006193,-0.015503,-0.001343,0.000456,0.003652,23.520536,27.983322,-1.000000,-1.000000,-1.000000
482149138.484037,-0.008575,-0.014908,-1.011520,0.038771,0.004883,0.002322,0.999245,0.002510,-0.038760,-0.002322,0.999985,0.004883,0.038772,-0.004789,0.999237,0.038760,-0.004883,-0.999237,-0.134128,-0.002487,-0.040863,0.002550,-0.001988,-0.000814,23.520536,27.983322,-1.000000,-1.000000,-1.000000
482149138.493820,-0.111938,-0.005814,-1.060547,0.038800,0.004845,0.002298,0.999244,0.002484,-0.038790,-0.002298,0.999986,0.004845,0.038802,-0.004753,0.999236,0.038790,-0.004845,-0.999236,-0.136141,0.001427,-0.039094,-0.001075,-0.000779,-0.001018,23.526037,27.988823,-1.000000,-1.000000,-1.000000
482149138.503930,-0.091507,-0.017258,-1.043655,0.038800,0.004845,0.002298,0.999244,0.002484,-0.038790,-0.002298,0.999986,0.004845,0.038802,-0.004753,0.999236,0.038790,-0.004845,-0.999236,-0.136141,0.001427,-0.039094,-0.001075,-0.000779,-0.001018,23.526037,27.988823,-1.000000,-1.000000,-1.000000
482149138.513929,-0.102386,-0.007233,-1.019165,0.038793,0.004885,0.002311,0.999245,0.002499,-0.038783,-0.002311,0.999985,0.004885,0.038794,-0.004792,0.999236,0.038783,-0.004885,-0.999236,-0.047358,-0.010023,-0.012285,0.004831,-0.000784,0.001639,23.526037,27.988823,-1.000000,-1.000000,-1.000000
482149138.523839,0.032852,-0.008865,-1.047958,0.038796,0.004858,0.002352,0.999244,0.002539,-0.038785,-0.002352,0.999985,0.004858,0.038797,-0.004763,0.999236,0.038785,-0.004858,-0.999236,-0.130292,-0.012400,-0.044420,-0.003625,0.001639,0.001168,23.526037,27.988823,-1.000000,-1.000000,-1.000000
482149138.533871,0.125412,-0.011337,-1.015182,0.038796,0.004858,0.002352,0.999244,0.002539,-0.038785,-0.002352,0.999985,0.004858,0.038797,-0.004763,0.999236,0.038785,-0.004858,-0.999236,-0.130292,-0.012400,-0.044420,-0.003625,0.001639,0.001168,23.526037,27.988823,-1.000000,-1.000000,-1.000000
482149138.543973,0.217819,-0.003265,-1.010712,0.038778,0.004803,0.002354,0.999245,0.002538,-0.038767,-0.002354,0.999986,0.004803,0.038779,-0.004708,0.999237,0.038767,-0.004803,-0.999237,-0.141154,-0.002430,-0.019928,-0.003558,0.000435,0.000012,23.531935,27.994720,-1.000000,-1.000000,-1.000000
482149138.553929,0.246445,-0.013077,-1.036072,0.038758,0.004820,0.002396,0.999246,0.002581,-0.038748,-0.002396,0.999986,0.004820,0.038760,-0.004724,0.999237,0.038748,-0.004820,-0.999237,-0.005896,-0.004045,-0.048721,-0.001410,0.000467,0.004823,23.531935,27.994720,-1.000000,-1.000000,-1.000000
482149138.563929,0.093475,-0.003098,-1.039536,0.038789,0.004804,0.002408,0.999244,0.002592,-0.038779,-0.002408,0.999986,0.004804,0.038791,-0.004707,0.999236,0.038779,-0.004804,-0.999236,0.086633,-0.006533,-0.015946,-0.002217,0.005183,-0.002331,23.531935,27.994720,-1.000000,-1.000000,-1.000000
482149138.574025,0.174545,-0.006775,-1.012299,0.038789,0.004804,0.002408,0.999244,0.002592,-0.038779,-0.002408,0.999986,0.004804,0.038791,-0.004707,0.999236,0.038779,-0.004804,-0.999236,0.086633,-0.006533,-0.015946,-0.002217,0.005183,-0.002331,23.531935,27.994720,-1.000000,-1.000000,-1.000000
482149138.583836,0.174545,-0.006775,-1.012299,0.038787,0.004749,0.002470,0.999244,0.002652,-0.038776,-0.002470,0.999986,0.004749,0.038788,-0.004649,0.999237,0.038776,-0.004749,-0.999237,0.207668,-0.008328,-0.036835,-0.005100,-0.000701,0.005821,23.531935,27.994720,-1.000000,-1.000000,-1.000000
