Timestamp,Accel_X,Accel_Y,Accel_Z,Roll,Pitch,Yaw,RM11,RM12,RM13,RM21,RM22,RM23,RM31,RM32,RM33,GravAcc_X,GravAcc_Y,GravAcc_Z,UserAcc_X,UserAcc_Y,UserAcc_Z,RotRate_X,RotRate_Y,RotRate_Z,MagHeading,TrueHeading,HeadingAccuracy,Course,Speed
482149302.087282,0.036850,-0.001663,-1.027405,0.038890,0.005605,-0.004056,0.999237,-0.003835,-0.038879,0.004056,0.999976,0.005605,0.038857,-0.005758,0.999228,0.038879,-0.005605,-0.999228,-0.001999,0.000951,-0.030084,0.001088,0.004258,-0.001900,23.408703,27.871487,-1.000000,-1.000000,-1.000000
482149302.097261,0.025009,-0.004593,-1.009628,0.038890,0.005605,-0.004056,0.999237,-0.003835,-0.038879,0.004056,0.999976,0.005605,0.038857,-0.005758,0.999228,0.038879,-0.005605,-0.999228,-0.001999,0.000951,-0.030084,0.001088,0.004258,-0.001900,23.408703,27.871487,-1.000000,-1.000000,-1.000000
482149302.107246,0.077927,-0.010086,-1.027740,0.038890,0.005605,-0.004056,0.999237,-0.003835,-0.038879,0.004056,0.999976,0.005605,0.038857,-0.005758,0.999228,0.038879,-0.005605,-0.999228,-0.001999,0.000951,-0.030084,0.001088,0.004258,-0.001900,23.408703,27.871487,-1.000000,-1.000000,-1.000000
482149302.116367,0.100754,-0.001877,-1.027451,0.038890,0.005605,-0.004056,0.999237,-0.003835,-0.038879,0.004056,0.999976,0.005605,0.038857,-0.005758,0.999228,0.038879,-0.005605,-0.999228,-0.001999,0.000951,-0.030084,0.001088,0.004258,-0.001900,23.408703,27.871487,-1.000000,-1.000000,-1.000000
482149302.126775,0.058258,-0.006165,-1.007614,0.038890,0.005605,-0.004056,0.999237,-0.003835,-0.038879,0.004056,0.999976,0.005605,0.038857,-0.005758,0.999228,0.038879,-0.005605,-0.999228,-0.001999,0.000951,-0.030084,0.001088,0.004258,-0.001900,23.408703,27.871487,-1.000000,-1.000000,-1.000000
482149302.137039,0.053177,-0.000397,-1.019653,0.038890,0.005605,-0.004056,0.999237,-0.003835,-0.038879,0.004056,0.999976,0.005605,0.038857,-0.005758,0.999228,0.038879,-0.005605,-0.999228,-0.001999,0.000951,-0.030084,0.001088,0.004258,-0.001900,23.408703,27.871487,-1.000000,-1.000000,-1.000000
482149302.147008,0.082703,-0.004242,-1.041138,0.038890,0.005605,-0.004056,0.999237,-0.003835,-0.038879,0.004056,0.999976,0.005605,0.038857,-0.005758,0.999228,0.038879,-0.005605,-0.999228,-0.001999,0.000951,-0.030084,0.001088,0.004258,-0.001900,23.408703,27.871487,-1.000000,-1.000000,-1.000000
482149302.157039,0.080414,-0.009949,-1.018845,0.038890,0.005605,-0.004056,0.999237,-0.003835,-0.038879,0.004056,0.999976,0.005605,0.038857,-0.005758,0.999228,0.038879,-0.005605,-0.999228,-0.001999,0.000951,-0.030084,0.001088,0.004258,-0.001900,23.408703,27.871487,-1.000000,-1.000000,-1.000000
482149302.166221,0.075607,-0.003876,-0.999817,0.038890,0.005605,-0.004056,0.999237,-0.003835,-0.038879,0.004056,0.999976,0.005605,0.038857,-0.005758,0.999228,0.038879,-0.005605,-0.999228,-0.001999,0.000951,-0.030084,0.001088,0.004258,-0.001900,23.408703,27.871487,-1.000000,-1.000000,-1.000000
482149302.176564,0.025421,0.000107,-1.033951,0.038890,0.005605,-0.004056,0.999237,-0.003835,-0.038879,0.004056,0.999976,0.005605,0.038857,-0.005758,0.999228,0.038879,-0.005605,-0.999228,-0.001999,0.000951,-0.030084,0.001088,0.004258,-0.001900,23.408703,27.871487,-1.000000,-1.000000,-1.000000
482149302.187020,-0.048447,-0.005753,-1.034409,0.038890,0.005605,-0.004056,0.999237,-0.003835,-0.038879,0.004056,0.999976,0.005605,0.038857,-0.005758,0.999228,0.038879,-0.005605,-0.999228,-0.001999,0.000951,-0.030084,0.001088,0.004258,-0.001900,23.408703,27.871487,-1.000000,-1.000000,-1.000000
482149302.196991,0.027740,-0.004517,-1.005569,0.038890,0.005605,-0.004056,0.999237,-0.003835,-0.038879,0.004056,0.999976,0.005605,0.038857,-0.005758,0.999228,0.038879,-0.005605,-0.999228,-0.001999,0.000951,-0.030084,0.001088,0.004258,-0.001900,23.408703,27.871487,-1.000000,-1.000000,-1.000000
482149302.206908,0.027740,-0.004517,-1.005569,0.038890,0.005605,-0.004056,0.999237,-0.003835,-0.038879,0.004056,0.999976,0.005605,0.038857,-0.005758,0.999228,0.038879,-0.005605,-0.999228,-0.001999,0.000951,-0.030084,0.001088,0.004258,-0.001900,23.408703,27.871487,-1.000000,-1.000000,-1.000000
482149302.217175,0.035385,-0.002777,-1.037201,0.038890,0.005605,-0.004056,0.999237,-0.003835,-0.038879,0.004056,0.999976,0.005605,0.038857,-0.005758,0.999228,0.038879,-0.005605,-0.999228,-0.001999,0.000951,-0.030084,0.001088,0.004258,-0.001900,23.408703,27.871487,-1.000000,-1.000000,-1.000000
482149302.226968,-0.001923,-0.011002,-1.023773,0.038890,0.005605,-0.004056,0.999237,-0.003835,-0.038879,0.004056,0.999976,0.005605,0.038857,-0.005758,0.999228,0.038879,-0.005605,-0.999228,-0.001999,0.000951,-0.030084,0.001088,0.004258,-0.001900,23.408703,27.871487,-1.000000,-1.000000,-1.000000
482149302.236990,0.020142,-0.004852,-1.029327,0.038890,0.005605,-0.004056,0.999237,-0.003835,-0.038879,0.004056,0.999976,0.005605,0.038857,-0.005758,0.999228,0.038879,-0.005605,-0.999228,-0.001999,0.000951,-0.030084,0.001088,0.004258,-0.001900,23.408703,27.871487,-1.000000,-1.000000,-1.000000
482149302.247053,0.044556,-0.004730,-1.044388,0.038890,0.005605,-0.004056,0.999237,-0.003835,-0.038879,0.004056,0.999976,0.005605,0.038857,-0.005758,0.999228,0.038879,-0.005605,-0.999228,-0.001999,0.000951,-0.030084,0.001088,0.004258,-0.001900,23.408703,27.871487,-1.000000,-1.000000,-1.000000
482149302.258826,0.062988,-0.007034,-1.004410,0.038890,0.005605,-0.004056,0.999237,-0.003835,-0.038879,0.004056,0.999976,0.005605,0.038857,-0.005758,0.999228,0.038879,-0.005605,-0.999228,-0.001999,0.000951,-0.030084,0.001088,0.004258,-0.001900,23.408703,27.871487,-1.000000,-1.000000,-1.000000
482149302.266822,0.101852,0.000076,-1.029373,0.038890,0.005605,-0.004056,0.999237,-0.003835,-0.038879,0.004056,0.999976,0.005605,0.038857,-0.005758,0.999228,0.038879,-0.005605,-0.999228,-0.001999,0.000951,-0.030084,0.001088,0.004258,-0.001900,23.408703,27.871487,-1.000000,-1.000000,-1.000000
482149302.276993,0.044418,-0.010468,-1.025864,0.038890,0.005605,-0.004056,0.999237,-0.003835,-0.038879,0.004056,0.999976,0.005605,0.038857,-0.005758,0.999228,0.038879,-0.005605,-0.999228,-0.001999,0.000951,-0.030084,0.001088,0.004258,-0.001900,23.408703,27.871487,-1.000000,-1.000000,-1.000000
482149302.287091,0.079086,-0.008911,-1.012161,0.038890,0.005605,-0.004056,0.999237,-0.003835,-0.038879,0.004056,0.999976,0.005605,0.038857,-0.005758,0.999228,0.038879,-0.005605,-0.999228,-0.001999,0.000951,-0.030084,0.001088,0.004258,-0.001900,23.408703,27.871487,-1.000000,-1.000000,-1.000000
482149302.297031,0.062958,-0.002258,-1.019989,0.038890,0.005605,-0.004056,0.999237,-0.003835,-0.038879,0.004056,0.999976,0.005605,0.038857,-0.005758,0.999228,0.038879,-0.005605,-0.999228,-0.001999,0.000951,-0.030084,0.001088,0.004258,-0.001900,23.408703,27.871487,-1.000000,-1.000000,-1.000000
482149302.307022,0.027451,-0.010620,-1.021057,0.038890,0.005605,-0.004056,0.999237,-0.003835,-0.038879,0.004056,0.999976,0.005605,0.038857,-0.005758,0.999228,0.038879,-0.005605,-0.999228,-0.001999,0.000951,-0.030084,0.001088,0.004258,-0.001900,23.408703,27.871487,-1.000000,-1.000000,-1.000000
482149302.317032,0.004944,-0.008942,-1.022430,0.038890,0.005605,-0.004056,0.999237,-0.003835,-0.038879,0.004056,0.999976,0.005605,0.038857,-0.005758,0.999228,0.038879,-0.005605,-0.999228,-0.001999,0.000951,-0.030084,0.001088,0.004258,-0.001900,23.408703,27.871487,-1.000000,-1.000000,-1.000000
482149302.326948,0.004944,-0.008942,-1.022430,0.038890,0.005605,-0.004056,0.999237,-0.003835,-0.038879,0.004056,0.999976,0.005605,0.038857,-0.005758,0.999228,0.038879,-0.005605,-0.999228,-0.001999,0.000951,-0.030084,0.001088,0.004258,-0.001900,23.408703,27.871487,-1.000000,-1.000000,-1.000000
482149302.337053,-0.050751,-0.009689,-1.029648,0.038890,0.005605,-0.004056,0.999237,-0.003835,-0.038879,0.004056,0.999976,0.005605,0.038857,-0.005758,0.999228,0.038879,-0.005605,-0.999228,-0.001999,0.000951,-0.030084,0.001088,0.004258,-0.001900,23.408703,27.871487,-1.000000,-1.000000,-1.000000
482149302.346980,0.018723,-0.010757,-1.023514,0.038890,0.005605,-0.004056,0.999237,-0.003835,-0.038879,0.004056,0.999976,0.005605,0.038857,-0.005758,0.999228,0.038879,-0.005605,-0.999228,-0.001999,0.000951,-0.030084,0.001088,0.004258,-0.001900,23.408703,27.871487,-1.000000,-1.000000,-1.000000
482149302.356741,0.033691,-0.009628,-1.027481,0.038890,0.005605,-0.004056,0.999237,-0.003835,-0.038879,0.004056,0.999976,0.005605,0.038857,-0.005758,0.999228,0.038879,-0.005605,-0.999228,-0.001999,0.000951,-0.030084,0.001088,0.004258,-0.001900,23.408703,27.871487,-1.000000,-1.000000,-1.000000
482149302.366980,0.012009,-0.009888,-1.026855,0.038890,0.005605,-0.004056,0.999237,-0.003835,-0.038879,0.004056,0.999976,0.005605,0.038857,-0.005758,0.999228,0.038879,-0.005605,-0.999228,-0.001999,0.000951,-0.030084,0.001088,0.004258,-0.001900,23.408703,27.871487,-1.000000,-1.000000,-1.000000
482149302.376996,-0.020859,-0.008408,-1.036621,0.038890,0.005605,-0.004056,0.999237,-0.003835,-0.038879,0.004056,0.999976,0.005605,0.038857,-0.005758,0.999228,0.038879,-0.005605,-0.999228,-0.001999,0.000951,-0.030084,0.001088,0.004258,-0.001900,23.408703,27.871487,-1.000000,-1.000000,-1.000000
482149302.387016,0.000519,-0.005905,-1.012039,0.038890,0.005605,-0.004056,0.999237,-0.003835,-0.038879,0.004056,0.999976,0.005605,0.038857,-0.005758,0.999228,0.038879,-0.005605,-0.999228,-0.001999,0.000951,-0.030084,0.001088,0.004258,-0.001900,23.408703,27.871487,-1.000000,-1.000000,-1.000000
482149302.396976,0.052811,-0.010468,-1.036057,0.038890,0.005605,-0.004056,0.999237,-0.003835,-0.038879,0.004056,0.999976,0.005605,0.038857,-0.005758,0.999228,0.038879,-0.005605,-0.999228,-0.001999,0.000951,-0.030084,0.001088,0.004258,-0.001900,23.408703,27.871487,-1.000000,-1.000000,-1.000000
482149302.407046,0.096970,-0.009918,-1.034378,0.038890,0.005605,-0.004056,0.999237,-0.003835,-0.038879,0.004056,0.999976,0.005605,0.038857,-0.005758,0.999228,0.038879,-0.005605,-0.999228,-0.001999,0.000951,-0.030084,0.001088,0.004258,-0.001900,23.408703,27.871487,-1.000000,-1.000000,-1.000000
482149302.417029,0.031464,-0.008606,-1.021805,0.038890,0.005605,-0.004056,0.999237,-0.003835,-0.038879,0.004056,0.999976,0.005605,0.038857,-0.005758,0.999228,0.038879,-0.005605,-0.999228,-0.001999,0.000951,-0.030084,0.001088,0.004258,-0.001900,23.408703,27.871487,-1.000000,-1.000000,-1.000000
482149302.426995,0.042740,-0.011337,-1.013336,0.038890,0.005605,-0.004056,0.999237,-0.003835,-0.038879,0.004056,0.999976,0.005605,0.038857,-0.005758,0.999228,0.038879,-0.005605,-0.999228,-0.001999,0.000951,-0.030084,0.001088,0.004258,-0.001900,23.408703,27.871487,-1.000000,-1.000000,-1.000000
482149302.436196,0.042740,-0.011337,-1.013336,0.038890,0.005605,-0.004056,0.999237,-0.003835,-0.038879,0.004056,0.999976,0.005605,0.038857,-0.005758,0.999228,0.038879,-0.005605,-0.999228,-0.001999,0.000951,-0.030084,0.001088,0.004258,-0.001900,23.408703,27.871487,-1.000000,-1.000000,-1.000000
482149302.447019,0.065872,-0.005219,-1.020767,0.038890,0.005605,-0.004056,0.999237,-0.003835,-0.038879,0.004056,0.999976,0.005605,0.038857,-0.005758,0.999228,0.038879,-0.005605,-0.999228,-0.001999,0.000951,-0.030084,0.001088,0.004258,-0.001900,23.408703,27.871487,-1.000000,-1.000000,-1.000000
482149302.457015,0.046585,-0.010284,-1.011169,0.038890,0.005605,-0.004056,0.999237,-0.003835,-0.038879,0.004056,0.999976,0.005605,0.038857,-0.005758,0.999228,0.038879,-0.005605,-0.999228,-0.001999,0.000951,-0.030084,0.001088,0.004258,-0.001900,23.408703,27.871487,-1.000000,-1.000000,-1.000000
482149302.466059,0.007263,-0.000214,-1.043777,0.038890,0.005605,-0.004056,0.999237,-0.003835,-0.038879,0.004056,0.999976,0.005605,0.038857,-0.005758,0.999228,0.038879,-0.005605,-0.999228,-0.001999,0.000951,-0.030084,0.001088,0.004258,-0.001900,23.408703,27.871487,-1.000000,-1.000000,-1.000000
482149302.477008,-0.058548,-0.007812,-1.030121,0.038890,0.005605,-0.004056,0.999237,-0.003835,-0.038879,0.004056,0.999976,0.005605,0.038857,-0.005758,0.999228,0.038879,-0.005605,-0.999228,-0.001999,0.000951,-0.030084,0.001088,0.004258,-0.001900,23.408703,27.871487,-1.000000,-1.000000,-1.000000
482149302.487205,0.025955,-0.001785,-1.026123,0.038890,0.005605,-0.004056,0.999237,-0.003835,-0.038879,0.004056,0.999976,0.005605,0.038857,-0.005758,0.999228,0.038879,-0.005605,-0.999228,-0.001999,0.000951,-0.030084,0.001088,0.004258,-0.001900,23.408703,27.871487,-1.000000,-1.000000,-1.000000
482149302.496935,0.022919,-0.004807,-1.026276,0.038890,0.005605,-0.004056,0.999237,-0.003835,-0.038879,0.004056,0.999976,0.005605,0.038857,-0.005758,0.999228,0.038879,-0.005605,-0.999228,-0.001999,0.000951,-0.030084,0.001088,0.004258,-0.001900,23.408703,27.871487,-1.000000,-1.000000,-1.000000
482149302.506987,0.003128,-0.010971,-1.026398,0.038890,0.005605,-0.004056,0.999237,-0.003835,-0.038879,0.004056,0.999976,0.005605,0.038857,-0.005758,0.999228,0.038879,-0.005605,-0.999228,-0.001999,0.000951,-0.030084,0.001088,0.004258,-0.001900,23.408703,27.871487,-1.000000,-1.000000,-1.000000
482149302.517008,-0.020187,-0.011307,-1.031662,0.038890,0.005605,-0.004056,0.999237,-0.003835,-0.038879,0.004056,0.999976,0.005605,0.038857,-0.005758,0.999228,0.038879,-0.005605,-0.999228,-0.001999,0.000951,-0.030084,0.001088,0.004258,-0.001900,23.408703,27.871487,-1.000000,-1.000000,-1.000000
482149302.526528,0.016449,-0.005966,-1.034409,0.038890,0.005605,-0.004056,0.999237,-0.003835,-0.038879,0.004056,0.999976,0.005605,0.038857,-0.005758,0.999228,0.038879,-0.005605,-0.999228,-0.001999,0.000951,-0.030084,0.001088,0.004258,-0.001900,23.408703,27.871487,-1.000000,-1.000000,-1.000000
482149302.537010,0.071716,-0.011078,-1.022293,0.038890,0.005605,-0.004056,0.999237,-0.003835,-0.038879,0.004056,0.999976,0.005605,0.038857,-0.005758,0.999228,0.038879,-0.005605,-0.999228,-0.001999,0.000951,-0.030084,0.001088,0.004258,-0.001900,23.408703,27.871487,-1.000000,-1.000000,-1.000000
482149302.546158,0.071716,-0.011078,-1.022293,0.038890,0.005605,-0.004056,0.999237,-0.003835,-0.038879,0.004056,0.999976,0.005605,0.038857,-0.005758,0.999228,0.038879,-0.005605,-0.999228,-0.001999,0.000951,-0.030084,0.001088,0.004258,-0.001900,23.408703,27.871487,-1.000000,-1.000000,-1.000000
482149302.556817,0.124863,-0.002502,-1.019211,0.038890,0.005605,-0.004056,0.999237,-0.003835,-0.038879,0.004056,0.999976,0.005605,0.038857,-0.005758,0.999228,0.038879,-0.005605,-0.999228,-0.001999,0.000951,-0.030084,0.001088,0.004258,-0.001900,23.408703,27.871487,-1.000000,-1.000000,-1.000000
482149302.566978,0.047546,-0.004501,-1.026733,0.038890,0.005605,-0.004056,0.999237,-0.003835,-0.038879,0.004056,0.999976,0.005605,0.038857,-0.005758,0.999228,0.038879,-0.005605,-0.999228,-0.001999,0.000951,-0.030084,0.001088,0.004258,-0.001900,23.408703,27.871487,-1.000000,-1.000000,-1.000000
482149302.576329,0.043823,0.001373,-1.027985,0.038890,0.005605,-0.004056,0.999237,-0.003835,-0.038879,0.004056,0.999976,0.005605,0.038857,-0.005758,0.999228,0.038879,-0.005605,-0.999228,-0.001999,0.000951,-0.030084,0.001088,0.004258,-0.001900,23.408703,27.871487,-1.000000,-1.000000,-1.000000
482149302.587030,0.104202,-0.006516,-1.002899,0.038890,0.005605,-0.004056,0.999237,-0.003835,-0.038879,0.004056,0.999976,0.005605,0.038857,-0.005758,0.999228,0.038879,-0.005605,-0.999228,-0.001999,0.000951,-0.030084,0.001088,0.004258,-0.001900,23.408703,27.871487,-1.000000,-1.000000,-1.000000
482149302.597060,0.085892,-0.005234,-1.045792,0.038890,0.005605,-0.004056,0.999237,-0.003835,-0.038879,0.004056,0.999976,0.005605,0.038857,-0.005758,0.999228,0.038879,-0.005605,-0.999228,-0.001999,0.000951,-0.030084,0.001088,0.004258,-0.001900,23.408703,27.871487,-1.000000,-1.000000,-1.000000
482149302.607073,0.049850,-0.015274,-1.019653,0.038890,0.005605,-0.004056,0.999237,-0.003835,-0.038879,0.004056,0.999976,0.005605,0.038857,-0.005758,0.999228,0.038879,-0.005605,-0.999228,-0.001999,0.000951,-0.030084,0.001088,0.004258,-0.001900,23.408703,27.871487,-1.000000,-1.000000,-1.000000
482149302.616783,-0.067841,-0.015976,-1.044189,0.038890,0.005605,-0.004056,0.999237,-0.003835,-0.038879,0.004056,0.999976,0.005605,0.038857,-0.005758,0.999228,0.038879,-0.005605,-0.999228,-0.001999,0.000951,-0.030084,0.001088,0.004258,-0.001900,23.408703,27.871487,-1.000000,-1.000000,-1.000000
482149302.627095,0.031631,-0.007629,-1.024734,0.038890,0.005605,-0.004056,0.999237,-0.003835,-0.038879,0.004056,0.999976,0.005605,0.038857,-0.005758,0.999228,0.038879,-0.005605,-0.999228,-0.001999,0.000951,-0.030084,0.001088,0.004258,-0.001900,23.408703,27.871487,-1.000000,-1.000000,-1.000000
482149302.637044,0.004471,-0.009048,-1.032166,0.038890,0.005605,-0.004056,0.999237,-0.003835,-0.038879,0.004056,0.999976,0.005605,0.038857,-0.005758,0.999228,0.038879,-0.005605,-0.999228,-0.001999,0.000951,-0.030084,0.001088,0.004258,-0.001900,23.408703,27.871487,-1.000000,-1.000000,-1.000000
482149302.647125,-0.009872,-0.011292,-1.040756,0.038890,0.005605,-0.004056,0.999237,-0.003835,-0.038879,0.004056,0.999976,0.005605,0.038857,-0.005758,0.999228,0.038879,-0.005605,-0.999228,-0.001999,0.000951,-0.030084,0.001088,0.004258,-0.001900,23.408703,27.871487,-1.000000,-1.000000,-1.000000
482149302.656958,-0.020889,-0.008194,-1.017197,0.038890,0.005605,-0.004056,0.999237,-0.003835,-0.038879,0.004056,0.999976,0.005605,0.038857,-0.005758,0.999228,0.038879,-0.005605,-0.999228,-0.001999,0.000951,-0.030084,0.001088,0.004258,-0.001900,23.408703,27.871487,-1.000000,-1.000000,-1.000000
482149302.666287,-0.020889,-0.008194,-1.017197,0.038890,0.005605,-0.004056,0.999237,-0.003835,-0.038879,0.004056,0.999976,0.005605,0.038857,-0.005758,0.999228,0.038879,-0.005605,-0.999228,-0.001999,0.000951,-0.030084,0.001088,0.004258,-0.001900,23.408703,27.871487,-1.000000,-1.000000,-1.000000
482149302.677125,0.060608,-0.007187,-1.015228,0.038890,0.005605,-0.004056,0.999237,-0.003835,-0.038879,0.004056,0.999976,0.005605,0.038857,-0.005758,0.999228,0.038879,-0.005605,-0.999228,-0.001999,0.000951,-0.030084,0.001088,0.004258,-0.001900,23.408703,27.871487,-1.000000,-1.000000,-1.000000
482149302.687012,0.080673,-0.010193,-1.042145,0.038890,0.005605,-0.004056,0.999237,-0.003835,-0.038879,0.004056,0.999976,0.005605,0.038857,-0.005758,0.999228,0.038879,-0.005605,-0.999228,-0.001999,0.000951,-0.030084,0.001088,0.004258,-0.001900,23.408703,27.871487,-1.000000,-1.000000,-1.000000
482149302.697070,0.133560,-0.009323,-1.019577,0.038890,0.005605,-0.004056,0.999237,-0.003835,-0.038879,0.004056,0.999976,0.005605,0.038857,-0.005758,0.999228,0.038879,-0.005605,-0.999228,-0.001999,0.000951,-0.030084,0.001088,0.004258,-0.001900,23.408703,27.871487,-1.000000,-1.000000,-1.000000
482149302.707147,0.041336,-0.011459,-1.024109,0.038890,0.005605,-0.004056,0.999237,-0.003835,-0.038879,0.004056,0.999976,0.005605,0.038857,-0.005758,0.999228,0.038879,-0.005605,-0.999228,-0.001999,0.000951,-0.030084,0.001088,0.004258,-0.001900,23.408703,27.871487,-1.000000,-1.000000,-1.000000
482149302.717067,0.080780,-0.003067,-1.022827,0.038890,0.005605,-0.004056,0.999237,-0.003835,-0.038879,0.004056,0.999976,0.005605,0.038857,-0.005758,0.999228,0.038879,-0.005605,-0.999228,-0.001999,0.000951,-0.030084,0.001088,0.004258,-0.001900,23.408703,27.871487,-1.000000,-1.000000,-1.000000
482149302.727064,0.127487,-0.009155,-0.997589,0.038890,0.005605,-0.004056,0.999237,-0.003835,-0.038879,0.004056,0.999976,0.005605,0.038857,-0.005758,0.999228,0.038879,-0.005605,-0.999228,-0.001999,0.000951,-0.030084,0.001088,0.004258,-0.001900,23.408703,27.871487,-1.000000,-1.000000,-1.000000
482149302.736994,0.114456,0.002258,-1.024750,0.038890,0.005605,-0.004056,0.999237,-0.003835,-0.038879,0.004056,0.999976,0.005605,0.038857,-0.005758,0.999228,0.038879,-0.005605,-0.999228,-0.001999,0.000951,-0.030084,0.001088,0.004258,-0.001900,23.408703,27.871487,-1.000000,-1.000000,-1.000000
482149302.747167,-0.065765,-0.013763,-1.026596,0.038890,0.005605,-0.004056,0.999237,-0.003835,-0.038879,0.004056,0.999976,0.005605,0.038857,-0.005758,0.999228,0.038879,-0.005605,-0.999228,-0.001999,0.000951,-0.030084,0.001088,0.004258,-0.001900,23.408703,27.871487,-1.000000,-1.000000,-1.000000
482149302.757119,-0.062653,-0.010803,-1.028397,0.038890,0.005605,-0.004056,0.999237,-0.003835,-0.038879,0.004056,0.999976,0.005605,0.038857,-0.005758,0.999228,0.038879,-0.005605,-0.999228,-0.001999,0.000951,-0.030084,0.001088,0.004258,-0.001900,23.408703,27.871487,-1.000000,-1.000000,-1.000000
482149302.767063,0.044510,-0.006516,-1.025909,0.038890,0.005605,-0.004056,0.999237,-0.003835,-0.038879,0.004056,0.999976,0.005605,0.038857,-0.005758,0.999228,0.038879,-0.005605,-0.999228,-0.001999,0.000951,-0.030084,0.001088,0.004258,-0.001900,23.408703,27.871487,-1.000000,-1.000000,-1.000000
482149302.776346,0.044510,-0.006516,-1.025909,0.038890,0.005605,-0.004056,0.999237,-0.003835,-0.038879,0.004056,0.999976,0.005605,0.038857,-0.005758,0.999228,0.038879,-0.005605,-0.999228,-0.001999,0.000951,-0.030084,0.001088,0.004258,-0.001900,23.408703,27.871487,-1.000000,-1.000000,-1.000000
482149302.786625,0.002670,-0.002136,-1.032349,0.038890,0.005605,-0.004056,0.999237,-0.003835,-0.038879,0.004056,0.999976,0.005605,0.038857,-0.005758,0.999228,0.038879,-0.005605,-0.999228,-0.001999,0.000951,-0.030084,0.001088,0.004258,-0.001900,23.408703,27.871487,-1.000000,-1.000000,-1.000000
482149302.796865,-0.007217,-0.010193,-1.034790,0.038890,0.005605,-0.004056,0.999237,-0.003835,-0.038879,0.004056,0.999976,0.005605,0.038857,-0.005758,0.999228,0.038879,-0.005605,-0.999228,-0.001999,0.000951,-0.030084,0.001088,0.004258,-0.001900,23.408703,27.871487,-1.000000,-1.000000,-1.000000
482149302.807140,0.022354,-0.001892,-1.032166,0.038890,0.005605,-0.004056,0.999237,-0.003835,-0.038879,0.004056,0.999976,0.005605,0.038857,-0.005758,0.999228,0.038879,-0.005605,-0.999228,-0.001999,0.000951,-0.030084,0.001088,0.004258,-0.001900,23.408703,27.871487,-1.000000,-1.000000,-1.000000
482149302.817038,0.095459,-0.012817,-1.025696,0.038890,0.005605,-0.004056,0.999237,-0.003835,-0.038879,0.004056,0.999976,0.005605,0.038857,-0.005758,0.999228,0.038879,-0.005605,-0.999228,-0.001999,0.000951,-0.030084,0.001088,0.004258,-0.001900,23.408703,27.871487,-1.000000,-1.000000,-1.000000
482149302.827099,0.127594,-0.009369,-1.017990,0.038890,0.005605,-0.004056,0.999237,-0.003835,-0.038879,0.004056,0.999976,0.005605,0.038857,-0.005758,0.999228,0.038879,-0.005605,-0.999228,-0.001999,0.000951,-0.030084,0.001088,0.004258,-0.001900,23.408703,27.871487,-1.000000,-1.000000,-1.000000
482149302.836594,0.177429,0.000046,-1.026779,0.024749,0.004534,-0.000017,0.999694,0.000095,-0.024746,0.000017,0.999990,0.004534,0.024746,-0.004533,0.999683,0.024746,-0.004534,-0.999683,0.070713,-0.008283,-0.026012,-0.003164,-0.003678,0.008392,23.408703,27.871487,-1.000000,-1.000000,-1.000000
482149302.847061,0.078751,-0.006073,-1.022903,0.024749,0.004534,-0.000017,0.999694,0.000095,-0.024746,0.000017,0.999990,0.004534,0.024746,-0.004533,0.999683,0.024746,-0.004534,-0.999683,0.070713,-0.008283,-0.026012,-0.003164,-0.003678,0.008392,23.408703,27.871487,-1.000000,-1.000000,-1.000000
482149302.857049,0.082626,-0.000046,-1.018860,0.024731,0.004496,0.000060,0.999694,0.000171,-0.024728,-0.000060,0.999990,0.004496,0.024729,-0.004493,0.999684,0.024728,-0.004496,-0.999684,0.102866,-0.004873,-0.018306,-0.007729,-0.001312,0.003423,23.408703,27.871487,-1.000000,-1.000000,-1.000000
482149302.867112,0.137665,-0.004333,-1.020370,0.024723,0.004340,0.000093,0.999694,0.000201,-0.024720,-0.000093,0.999991,0.004340,0.024721,-0.004336,0.999685,0.024720,-0.004340,-0.999685,0.152709,0.004385,-0.027094,-0.013367,0.001037,-0.003950,23.408703,27.871487,-1.000000,-1.000000,-1.000000
482149302.877282,0.054581,0.002487,-1.026398,0.024688,0.004272,0.000046,0.999695,0.000151,-0.024686,-0.000046,0.999991,0.004272,0.024686,-0.004270,0.999686,0.024686,-0.004272,-0.999686,0.054065,-0.001801,-0.023217,-0.003634,-0.007369,-0.004507,23.408703,27.871487,-1.000000,-1.000000,-1.000000
482149302.887164,-0.015640,-0.008194,-1.023666,0.024688,0.004272,0.000046,0.999695,0.000151,-0.024686,-0.000046,0.999991,0.004272,0.024686,-0.004270,0.999686,0.024686,-0.004272,-0.999686,0.054065,-0.001801,-0.023217,-0.003634,-0.007369,-0.004507,23.408703,27.871487,-1.000000,-1.000000,-1.000000
482149302.897065,-0.097443,0.000565,-1.034515,0.024669,0.004167,0.000038,0.999696,0.000141,-0.024666,-0.000038,0.999991,0.004167,0.024667,-0.004165,0.999687,0.024666,-0.004167,-0.999687,0.112999,-0.000166,-0.020683,-0.001489,0.001018,0.000192,23.408703,27.871487,-1.000000,-1.000000,-1.000000
482149302.906292,-0.097443,0.000565,-1.034515,0.024662,0.004142,0.000067,0.999696,0.000169,-0.024659,-0.000067,0.999991,0.004142,0.024660,-0.004139,0.999687,0.024659,-0.004142,-0.999687,0.029921,0.006629,-0.026710,-0.004039,0.001049,0.002409,23.408703,27.871487,-1.000000,-1.000000,-1.000000
482149302.917615,-0.084991,-0.005157,-1.030792,0.024561,0.004018,0.000140,0.999698,0.000239,-0.024558,-0.000140,0.999992,0.004018,0.024559,-0.004013,0.999690,0.024558,-0.004018,-0.999690,-0.040198,-0.004176,-0.023976,-0.004105,-0.001327,0.003612,23.408703,27.871487,-1.000000,-1.000000,-1.000000
482149302.926674,-0.024872,-0.006454,-1.033951,0.024561,0.004018,0.000140,0.999698,0.000239,-0.024558,-0.000140,0.999992,0.004018,0.024559,-0.004013,0.999690,0.024558,-0.004018,-0.999690,-0.040198,-0.004176,-0.023976,-0.004105,-0.001327,0.003612,23.408703,27.871487,-1.000000,-1.000000,-1.000000
482149302.937076,-0.051926,-0.011841,-1.045212,0.024537,0.003976,0.000169,0.999699,0.000266,-0.024535,-0.000169,0.999992,0.003976,0.024536,-0.003970,0.999691,0.024535,-0.003976,-0.999691,-0.121977,0.004540,-0.034824,-0.006320,-0.002543,-0.000012,23.408703,27.871487,-1.000000,-1.000000,-1.000000
482149302.947070,0.015976,-0.010834,-1.027573,0.024458,0.003855,0.000134,0.999701,0.000228,-0.024455,-0.000134,0.999993,0.003855,0.024456,-0.003851,0.999694,0.024455,-0.003855,-0.999694,-0.049327,-0.002599,-0.034257,-0.006586,-0.007275,0.004737,23.408703,27.871487,-1.000000,-1.000000,-1.000000
482149302.957013,0.074600,-0.004272,-1.036758,0.024458,0.003855,0.000134,0.999701,0.000228,-0.024455,-0.000134,0.999993,0.003855,0.024456,-0.003851,0.999694,0.024455,-0.003855,-0.999694,-0.049327,-0.002599,-0.034257,-0.006586,-0.007275,0.004737,23.408703,27.871487,-1.000000,-1.000000,-1.000000
482149302.967080,0.111984,-0.009598,-1.020859,0.024412,0.003867,0.000202,0.999702,0.000296,-0.024410,-0.000202,0.999992,0.003867,0.024411,-0.003861,0.999695,0.024410,-0.003867,-0.999695,-0.076335,-0.007974,-0.045517,0.001734,-0.003709,0.007471,23.408703,27.871487,-1.000000,-1.000000,-1.000000
482149302.977071,0.154114,-0.001083,-1.013580,0.024393,0.003765,0.000280,0.999702,0.000372,-0.024391,-0.000280,0.999993,0.003765,0.024392,-0.003757,0.999695,0.024391,-0.003765,-0.999695,-0.008415,-0.007068,-0.027877,0.000324,-0.002479,0.010907,23.408703,27.871487,-1.000000,-1.000000,-1.000000
482149302.987068,0.067383,-0.003098,-1.011002,0.024386,0.003731,0.000244,0.999703,0.000335,-0.024384,-0.000244,0.999993,0.003731,0.024385,-0.003724,0.999696,0.024384,-0.003731,-0.999696,0.050217,-0.000542,-0.037063,-0.005852,-0.000229,-0.008243,23.408703,27.871487,-1.000000,-1.000000,-1.000000
482149302.997016,0.100647,-0.006638,-1.009933,0.024386,0.003731,0.000244,0.999703,0.000335,-0.024384,-0.000244,0.999993,0.003731,0.024385,-0.003724,0.999696,0.024384,-0.003731,-0.999696,0.050217,-0.000542,-0.037063,-0.005852,-0.000229,-0.008243,23.408703,27.871487,-1.000000,-1.000000,-1.000000
482149303.007124,0.134506,-0.002335,-1.015717,0.024372,0.003714,0.000260,0.999703,0.000350,-0.024369,-0.000260,0.999993,0.003714,0.024370,-0.003707,0.999696,0.024369,-0.003714,-0.999696,0.129744,0.002631,-0.013884,-0.000012,-0.003804,-0.004367,23.408703,27.871487,-1.000000,-1.000000,-1.000000
482149303.017147,0.134506,-0.002335,-1.015717,0.024327,0.003672,0.000278,0.999704,0.000367,-0.024324,-0.000278,0.999993,0.003672,0.024325,-0.003664,0.999697,0.024324,-0.003672,-0.999697,0.043059,0.000575,-0.011304,-0.006520,-0.006092,0.003550,23.408703,27.871487,-1.000000,-1.000000,-1.000000
482149303.027015,0.055084,-0.009323,-1.023300,0.024327,0.003672,0.000278,0.999704,0.000367,-0.024324,-0.000278,0.999993,0.003672,0.024325,-0.003664,0.999697,0.024324,-0.003672,-0.999697,0.043059,0.000575,-0.011304,-0.006520,-0.006092,0.003550,23.408703,27.871487,-1.000000,-1.000000,-1.000000
482149303.037042,-0.015778,-0.007187,-1.020752,0.024296,0.003573,0.000276,0.999705,0.000362,-0.024294,-0.000276,0.999994,0.003573,0.024295,-0.003565,0.999698,0.024294,-0.003573,-0.999698,0.076353,-0.003065,-0.010235,-0.002630,-0.000181,-0.001027,23.408703,27.871487,-1.000000,-1.000000,-1.000000
482149303.047066,-0.088593,-0.002289,-1.035873,0.024289,0.003553,0.000316,0.999705,0.000402,-0.024287,-0.000316,0.999994,0.003553,0.024288,-0.003544,0.999699,0.024287,-0.003553,-0.999699,0.110219,0.001218,-0.016018,0.000725,-0.000154,0.003847,23.408703,27.871487,-1.000000,-1.000000,-1.000000
482149303.057111,-0.044540,-0.012634,-1.037003,0.024281,0.003442,0.000307,0.999705,0.000391,-0.024278,-0.000307,0.999994,0.003442,0.024280,-0.003434,0.999699,0.024278,-0.003442,-0.999699,-0.040056,-0.003745,-0.021053,-0.010144,-0.004883,0.003345,23.408703,27.871487,-1.000000,-1.000000,-1.000000
482149303.067198,-0.042435,-0.008682,-1.037903,0.024281,0.003442,0.000307,0.999705,0.000391,-0.024278,-0.000307,0.999994,0.003442,0.024280,-0.003434,0.999699,0.024278,-0.003442,-0.999699,-0.040056,-0.003745,-0.021053,-0.010144,-0.004883,0.003345,23.408703,27.871487,-1.000000,-1.000000,-1.000000
482149303.077085,-0.058548,-0.008011,-1.048569,0.024235,0.003407,0.000298,0.999706,0.000381,-0.024233,-0.000298,0.999994,0.003407,0.024234,-0.003399,0.999701,0.024233,-0.003407,-0.999701,-0.112825,0.001118,-0.036173,-0.005985,-0.002596,-0.005868,23.408703,27.871487,-1.000000,-1.000000,-1.000000
482149303.087129,0.004547,-0.012024,-1.035049,0.024250,0.003271,0.000386,0.999706,0.000465,-0.024247,-0.000386,0.999995,0.003271,0.024248,-0.003261,0.999701,0.024247,-0.003271,-0.999701,-0.068787,-0.009363,-0.037302,-0.006656,0.002284,0.005781,23.408703,27.871487,-1.000000,-1.000000,-1.000000
482149303.097126,0.039368,-0.007523,-1.022324,0.024248,0.003241,0.000372,0.999706,0.000450,-0.024245,-0.000372,0.999995,0.003241,0.024247,-0.003231,0.999701,0.024245,-0.003241,-0.999701,-0.066680,-0.005441,-0.038202,-0.003771,-0.001380,-0.002245,23.408703,27.871487,-1.000000,-1.000000,-1.000000
482149303.107093,0.114075,-0.010574,-1.023636,0.024248,0.003241,0.000372,0.999706,0.000450,-0.024245,-0.000372,0.999995,0.003241,0.024247,-0.003231,0.999701,0.024245,-0.003241,-0.999701,-0.066680,-0.005441,-0.038202,-0.003771,-0.001380,-0.002245,23.408703,27.871487,-1.000000,-1.000000,-1.000000
482149303.117205,0.138138,-0.005630,-1.048477,0.024212,0.003153,0.000386,0.999707,0.000462,-0.024210,-0.000386,0.999995,0.003153,0.024211,-0.003142,0.999702,0.024210,-0.003153,-0.999702,-0.019662,-0.008871,-0.035348,-0.005447,-0.001302,0.005891,23.408703,27.871487,-1.000000,-1.000000,-1.000000
482149303.127081,0.138138,-0.005630,-1.048477,0.024222,0.003127,0.000414,0.999707,0.000490,-0.024219,-0.000414,0.999995,0.003127,0.024221,-0.003116,0.999702,0.024219,-0.003127,-0.999702,0.015149,-0.004396,-0.022622,-0.000483,0.001044,0.003769,23.408703,27.871487,-1.000000,-1.000000,-1.000000
482149303.137283,0.071793,-0.012085,-1.024216,0.024222,0.003127,0.000414,0.999707,0.000490,-0.024219,-0.000414,0.999995,0.003127,0.024221,-0.003116,0.999702,0.024219,-0.003127,-0.999702,0.015149,-0.004396,-0.022622,-0.000483,0.001044,0.003769,23.408703,27.871487,-1.000000,-1.000000,-1.000000
482149303.147023,0.119293,-0.004623,-1.026306,0.024224,0.003049,0.000444,0.999706,0.000518,-0.024222,-0.000444,0.999995,0.003049,0.024223,-0.003037,0.999702,0.024222,-0.003049,-0.999702,0.089853,-0.007525,-0.023934,-0.002831,-0.001343,0.002503,23.408703,27.871487,-1.000000,-1.000000,-1.000000
482149303.157068,0.141830,-0.002350,-1.024017,0.024195,0.003058,0.000437,0.999707,0.000511,-0.024193,-0.000437,0.999995,0.003058,0.024194,-0.003046,0.999703,0.024193,-0.003058,-0.999703,0.113945,-0.002573,-0.048775,0.001061,-0.002595,-0.001977,23.408703,27.871487,-1.000000,-1.000000,-1.000000
482149303.167065,0.122192,-0.003586,-1.025177,0.024164,0.002949,0.000380,0.999708,0.000451,-0.024162,-0.000380,0.999996,0.002949,0.024163,-0.002939,0.999704,0.024162,-0.002949,-0.999704,0.095131,-0.001674,-0.026602,-0.005179,-0.003731,0.001238,23.408703,27.871487,-1.000000,-1.000000,-1.000000
482149303.176998,0.025696,-0.002716,-1.021255,0.024164,0.002949,0.000380,0.999708,0.000451,-0.024162,-0.000380,0.999996,0.002949,0.024163,-0.002939,0.999704,0.024162,-0.002949,-0.999704,0.095131,-0.001674,-0.026602,-0.005179,-0.003731,0.001238,23.408703,27.871487,-1.000000,-1.000000,-1.000000
482149303.187060,-0.050446,-0.009750,-1.035446,0.024158,0.002912,0.000409,0.999708,0.000479,-0.024155,-0.000409,0.999996,0.002912,0.024156,-0.002902,0.999704,0.024155,-0.002912,-0.999704,0.117675,0.000563,-0.024313,-0.006589,-0.001307,0.004657,23.408703,27.871487,-1.000000,-1.000000,-1.000000
482149303.197072,-0.012314,-0.009232,-1.031219,0.024160,0.002836,0.000395,0.999708,0.000464,-0.024157,-0.000395,0.999996,0.002836,0.024159,-0.002825,0.999704,0.024157,-0.002836,-0.999704,0.098035,-0.000750,-0.025473,-0.003972,-0.000155,0.001253,23.408703,27.871487,-1.000000,-1.000000,-1.000000
482149303.207045,-0.026901,-0.011230,-1.016541,0.024115,0.002772,0.000386,0.999709,0.000453,-0.024112,-0.000386,0.999996,0.002772,0.024113,-0.002762,0.999705,0.024112,-0.002772,-0.999705,0.001584,0.000056,-0.021550,0.000995,-0.006165,-0.000759,23.408703,27.871487,-1.000000,-1.000000,-1.000000
482149303.217054,-0.040802,0.000153,-1.045670,0.024115,0.002772,0.000386,0.999709,0.000453,-0.024112,-0.000386,0.999996,0.002772,0.024113,-0.002762,0.999705,0.024112,-0.002772,-0.999705,0.001584,0.000056,-0.021550,0.000995,-0.006165,-0.000759,23.408703,27.871487,-1.000000,-1.000000,-1.000000
482149303.227066,-0.018463,-0.004272,-1.023895,0.024117,0.002678,0.000399,0.999709,0.000464,-0.024115,-0.000399,0.999996,0.002678,0.024116,-0.002668,0.999706,0.024115,-0.002678,-0.999706,-0.036429,-0.006553,-0.031514,-0.005113,-0.000161,0.000019,23.408703,27.871487,-1.000000,-1.000000,-1.000000
482149303.236782,-0.018463,-0.004272,-1.023895,0.024127,0.002625,0.000406,0.999709,0.000469,-0.024124,-0.000406,0.999996,0.002625,0.024125,-0.002615,0.999705,0.024124,-0.002625,-0.999705,-0.051025,-0.008605,-0.016835,-0.006456,0.003446,0.002251,23.408703,27.871487,-1.000000,-1.000000,-1.000000
482149303.247130,0.011108,-0.005936,-1.025986,0.024127,0.002625,0.000406,0.999709,0.000469,-0.024124,-0.000406,0.999996,0.002625,0.024125,-0.002615,0.999705,0.024124,-0.002625,-0.999705,-0.051025,-0.008605,-0.016835,-0.006456,0.003446,0.002251,23.408703,27.871487,-1.000000,-1.000000,-1.000000
482149303.257030,0.063446,-0.010101,-1.014038,0.024118,0.002581,0.000415,0.999709,0.000477,-0.024116,-0.000415,0.999997,0.002581,0.024117,-0.002571,0.999706,0.024116,-0.002581,-0.999706,-0.064918,0.002734,-0.045964,-0.005180,0.001043,0.001175,23.408703,27.871487,-1.000000,-1.000000,-1.000000
482149303.266373,0.110809,-0.007584,-1.016098,0.024122,0.002508,0.000383,0.999709,0.000444,-0.024120,-0.000383,0.999997,0.002508,0.024121,-0.002498,0.999706,0.024120,-0.002508,-0.999706,-0.042583,-0.001765,-0.024189,-0.009744,0.001021,-0.003762,23.408703,27.871487,-1.000000,-1.000000,-1.000000
482149303.277079,0.077011,-0.009506,-1.065689,0.024086,0.002424,0.000398,0.999710,0.000456,-0.024084,-0.000398,0.999997,0.002424,0.024085,-0.002414,0.999707,0.024084,-0.002424,-0.999707,0.039362,-0.007677,-0.014331,-0.006589,-0.000114,0.004641,23.408703,27.871487,-1.000000,-1.000000,-1.000000
482149303.287107,0.097839,-0.009689,-1.013916,0.024086,0.002424,0.000398,0.999710,0.000456,-0.024084,-0.000398,0.999997,0.002424,0.024085,-0.002414,0.999707,0.024084,-0.002424,-0.999707,0.039362,-0.007677,-0.014331,-0.006589,-0.000114,0.004641,23.408703,27.871487,-1.000000,-1.000000,-1.000000
482149303.297126,0.139511,0.001694,-1.015472,0.024073,0.002456,0.000390,0.999710,0.000449,-0.024071,-0.000390,0.999997,0.002456,0.024072,-0.002445,0.999707,0.024071,-0.002456,-0.999707,0.086738,-0.005128,-0.016391,0.004617,-0.002600,-0.000618,23.408703,27.871487,-1.000000,-1.000000,-1.000000
482149303.307078,0.074539,-0.011414,-1.057083,0.024086,0.002456,0.000385,0.999710,0.000444,-0.024084,-0.000385,0.999997,0.002456,0.024085,-0.002446,0.999707,0.024084,-0.002456,-0.999707,0.052927,-0.007050,-0.065982,0.004683,0.002165,-0.001853,23.408703,27.871487,-1.000000,-1.000000,-1.000000
482149303.317317,-0.010849,-0.003952,-1.001099,0.024096,0.002382,0.000380,0.999710,0.000437,-0.024093,-0.000380,0.999997,0.002382,0.024094,-0.002372,0.999707,0.024093,-0.002382,-0.999707,0.073746,-0.007307,-0.014209,-0.010146,-0.000109,0.003281,23.408703,27.871487,-1.000000,-1.000000,-1.000000
482149303.327145,-0.076401,-0.007980,-1.027313,0.024096,0.002382,0.000380,0.999710,0.000437,-0.024093,-0.000380,0.999997,0.002382,0.024094,-0.002372,0.999707,0.024093,-0.002382,-0.999707,0.073746,-0.007307,-0.014209,-0.010146,-0.000109,0.003281,23.408703,27.871487,-1.000000,-1.000000,-1.000000
482149303.337323,-0.040970,-0.012726,-1.048447,0.024116,0.002230,0.000450,0.999709,0.000504,-0.024113,-0.000450,0.999997,0.002230,0.024114,-0.002218,0.999707,0.024113,-0.002230,-0.999707,0.050426,-0.009184,-0.057376,-0.002967,0.003452,0.004782,23.408703,27.871487,-1.000000,-1.000000,-1.000000
482149303.347133,-0.040970,-0.012726,-1.048447,0.024065,0.002233,0.000465,0.999710,0.000518,-0.024062,-0.000465,0.999997,0.002233,0.024063,-0.002221,0.999708,0.024062,-0.002233,-0.999708,-0.034911,-0.001719,-0.001391,-0.001555,-0.006134,0.001458,23.408703,27.871487,-1.000000,-1.000000,-1.000000
482149303.357155,-0.058914,-0.005951,-1.040863,0.024065,0.002233,0.000465,0.999710,0.000518,-0.024062,-0.000465,0.999997,0.002233,0.024063,-0.002221,0.999708,0.024062,-0.002233,-0.999708,-0.034911,-0.001719,-0.001391,-0.001555,-0.006134,0.001458,23.408703,27.871487,-1.000000,-1.000000,-1.000000
482149303.367163,-0.047028,-0.008789,-1.043991,0.024083,0.002162,0.000435,0.999710,0.000487,-0.024081,-0.000435,0.999998,0.002162,0.024082,-0.002151,0.999708,0.024081,-0.002162,-0.999708,-0.100482,-0.005818,-0.027606,0.002267,0.002175,-0.001978,23.408703,27.871487,-1.000000,-1.000000,-1.000000
482149303.377087,-0.001678,-0.004883,-1.007324,0.024087,0.002149,0.000427,0.999710,0.000478,-0.024085,-0.000427,0.999998,0.002149,0.024086,-0.002138,0.999708,0.024085,-0.002149,-0.999708,-0.065054,-0.010577,-0.048739,-0.003839,-0.000177,-0.001090,23.408703,27.871487,-1.000000,-1.000000,-1.000000
482149303.387066,0.038971,-0.013626,-1.035873,0.024090,0.002049,0.000440,0.999710,0.000489,-0.024087,-0.000440,0.999998,0.002049,0.024088,-0.002038,0.999708,0.024087,-0.002049,-0.999708,-0.071115,-0.006740,-0.044283,-0.000147,-0.003783,-0.002024,23.408703,27.871487,-1.000000,-1.000000,-1.000000
482149303.397017,0.147003,-0.010269,-1.032349,0.024090,0.002049,0.000440,0.999710,0.000489,-0.024087,-0.000440,0.999998,0.002049,0.024088,-0.002038,0.999708,0.024087,-0.002049,-0.999708,-0.071115,-0.006740,-0.044283,-0.000147,-0.003783,-0.002024,23.408703,27.871487,-1.000000,-1.000000,-1.000000
482149303.407081,0.087631,-0.005768,-1.004883,0.024099,0.002002,0.000430,0.999710,0.000478,-0.024097,-0.000430,0.999998,0.002002,0.024098,-0.001991,0.999708,0.024097,-0.002002,-0.999708,-0.025775,-0.002881,-0.007617,-0.008738,0.002242,-0.000201,23.408703,27.871487,-1.000000,-1.000000,-1.000000
482149303.417069,0.064926,-0.010208,-1.023682,0.024035,0.001932,0.000397,0.999711,0.000443,-0.024033,-0.000397,0.999998,0.001932,0.024034,-0.001922,0.999709,0.024033,-0.001932,-0.999709,0.122970,-0.008337,-0.032639,-0.000147,-0.003783,-0.002024,23.408703,27.871487,-1.000000,-1.000000,-1.000000
482149303.427089,0.139557,-0.006470,-1.038681,0.024035,0.001932,0.000397,0.999711,0.000443,-0.024033,-0.000397,0.999998,0.001932,0.024034,-0.001922,0.999709,0.024033,-0.001932,-0.999709,0.122970,-0.008337,-0.032639,-0.000147,-0.003783,-0.002024,23.408703,27.871487,-1.000000,-1.000000,-1.000000
482149303.437091,0.124588,-0.011185,-0.999680,0.024017,0.001879,0.000403,0.999712,0.000448,-0.024015,-0.000403,0.999998,0.001879,0.024016,-0.001869,0.999710,0.024015,-0.001879,-0.999710,0.122988,-0.008390,-0.032639,-0.006188,-0.000177,-0.002386,23.408703,27.871487,-1.000000,-1.000000,-1.000000
482149303.447061,0.111115,-0.009628,-1.022842,0.024037,0.001810,0.000482,0.999711,0.000525,-0.024035,-0.000482,0.999998,0.001810,0.024035,-0.001798,0.999709,0.024035,-0.001810,-0.999709,0.040892,-0.008398,-0.023972,-0.005114,0.001032,0.000003,23.408703,27.871487,-1.000000,-1.000000,-1.000000
482149303.457135,0.111115,-0.009628,-1.022842,0.024036,0.001768,0.000516,0.999711,0.000558,-0.024033,-0.000516,0.999998,0.001768,0.024034,-0.001755,0.999710,0.024033,-0.001768,-0.999710,0.115524,-0.004702,-0.038971,-0.010213,-0.000098,0.004452,23.408703,27.871487,-1.000000,-1.000000,-1.000000
482149303.467144,0.007904,-0.005325,-1.058243,0.024036,0.001768,0.000516,0.999711,0.000558,-0.024033,-0.000516,0.999998,0.001768,0.024034,-0.001755,0.999710,0.024033,-0.001768,-0.999710,0.115524,-0.004702,-0.038971,-0.010213,-0.000098,0.004452,23.408703,27.871487,-1.000000,-1.000000,-1.000000
482149303.477073,-0.065353,-0.011688,-1.014938,0.024033,0.001595,0.000554,0.999711,0.000592,-0.024031,-0.000554,0.999999,0.001595,0.024032,-0.001581,0.999710,0.024031,-0.001595,-0.999710,0.100557,-0.009590,0.000030,-0.007596,-0.001334,0.001081,23.408703,27.871487,-1.000000,-1.000000,-1.000000
482149303.487065,0.018723,-0.003998,-1.039154,0.024016,0.001503,0.000559,0.999711,0.000595,-0.024013,-0.000559,0.999999,0.001503,0.024014,-0.001489,0.999711,0.024013,-0.001503,-0.999711,0.087101,-0.008125,-0.023132,-0.009945,-0.001334,-0.000216,23.408703,27.871487,-1.000000,-1.000000,-1.000000
482149303.497106,0.030380,-0.004028,-1.054977,0.023936,0.001350,0.000502,0.999713,0.000534,-0.023933,-0.000502,0.999999,0.001350,0.023934,-0.001338,0.999713,0.023933,-0.001350,-0.999713,-0.089287,-0.010338,-0.015226,-0.009744,-0.002560,-0.003715,23.408703,27.871487,-1.000000,-1.000000,-1.000000
482149303.507421,-0.058594,-0.007599,-1.010696,0.023936,0.001350,0.000502,0.999713,0.000534,-0.023933,-0.000502,0.999999,0.001350,0.023934,-0.001338,0.999713,0.023933,-0.001350,-0.999713,-0.089287,-0.010338,-0.015226,-0.009744,-0.002560,-0.003715,23.408703,27.871487,-1.000000,-1.000000,-1.000000
482149303.517037,0.044174,-0.005661,-1.037598,0.023923,0.001282,0.000471,0.999714,0.000501,-0.023921,-0.000471,0.999999,0.001282,0.023921,-0.001271,0.999713,0.023921,-0.001282,-0.999713,-0.005198,-0.002716,-0.039441,-0.007261,-0.003774,-0.004744,23.408703,27.871487,-1.000000,-1.000000,-1.000000
482149303.527075,0.073944,-0.002167,-1.023239,0.023876,0.001217,0.000431,0.999715,0.000460,-0.023873,-0.000431,0.999999,0.001217,0.023874,-0.001207,0.999714,0.023873,-0.001217,-0.999714,-0.082467,-0.006381,-0.010982,-0.006389,-0.000145,0.001127,23.408703,27.871487,-1.000000,-1.000000,-1.000000
482149303.537231,0.161179,-0.008987,-1.020813,0.023876,0.001217,0.000431,0.999715,0.000460,-0.023873,-0.000431,0.999999,0.001217,0.023874,-0.001207,0.999714,0.023873,-0.001217,-0.999714,-0.082467,-0.006381,-0.010982,-0.006389,-0.000145,0.001127,23.408703,27.871487,-1.000000,-1.000000,-1.000000
482149303.547103,0.049835,-0.001556,-1.031479,0.023869,0.001203,0.000455,0.999715,0.000484,-0.023866,-0.000455,0.999999,0.001203,0.023867,-0.001192,0.999714,0.023866,-0.001203,-0.999714,-0.082460,-0.006396,-0.010982,-0.004241,-0.000113,0.005938,23.408703,27.871487,-1.000000,-1.000000,-1.000000
482149303.557022,0.067627,-0.009903,-1.000198,0.023838,0.001123,0.000388,0.999716,0.000415,-0.023835,-0.000388,0.999999,0.001123,0.023836,-0.001113,0.999715,0.023835,-0.001123,-0.999715,0.050109,-0.001044,-0.023524,-0.004644,-0.005009,-0.008116,23.408703,27.871487,-1.000000,-1.000000,-1.000000
482149303.567112,0.067627,-0.009903,-1.000198,0.023770,0.001099,0.000354,0.999717,0.000380,-0.023768,-0.000354,0.999999,0.001099,0.023768,-0.001090,0.999717,0.023768,-0.001099,-0.999717,0.137411,-0.007888,-0.021096,-0.002631,-0.002569,-0.000995,23.408703,27.871487,-1.000000,-1.000000,-1.000000
482149303.577140,0.142807,0.001663,-1.022064,0.023770,0.001099,0.000354,0.999717,0.000380,-0.023768,-0.000354,0.999999,0.001099,0.023768,-0.001090,0.999717,0.023768,-0.001099,-0.999717,0.137411,-0.007888,-0.021096,-0.002631,-0.002569,-0.000995,23.408703,27.871487,-1.000000,-1.000000,-1.000000
482149303.586615,0.118774,-0.008499,-1.018524,0.023745,0.000973,0.000307,0.999718,0.000330,-0.023743,-0.000307,0.999999,0.000973,0.023743,-0.000966,0.999718,0.023743,-0.000973,-0.999718,0.026093,-0.000583,-0.031761,-0.013435,-0.000147,-0.002763,23.408703,27.871487,-1.000000,-1.000000,-1.000000
482149303.597089,0.060394,-0.010132,-1.012283,0.023678,0.000909,0.000330,0.999720,0.000352,-0.023676,-0.000330,1.000000,0.000909,0.023676,-0.000901,0.999719,0.023676,-0.000909,-0.999719,0.043951,-0.008994,-0.000479,-0.007728,-0.008474,0.003519,23.408703,27.871487,-1.000000,-1.000000,-1.000000
482149303.607076,-0.015854,-0.004395,-1.036362,0.023654,0.000775,0.000380,0.999720,0.000399,-0.023651,-0.000380,1.000000,0.000775,0.023652,-0.000765,0.999720,0.023651,-0.000775,-0.999720,0.095123,-0.007724,-0.018804,-0.004980,-0.001376,-0.002308,23.408703,27.871487,-1.000000,-1.000000,-1.000000
482149303.617038,-0.069885,-0.011810,-1.022003,0.023654,0.000775,0.000380,0.999720,0.000399,-0.023651,-0.000380,1.000000,0.000775,0.023652,-0.000765,0.999720,0.023651,-0.000775,-0.999720,0.095123,-0.007724,-0.018804,-0.004980,-0.001376,-0.002308,23.408703,27.871487,-1.000000,-1.000000,-1.000000
482149303.627026,0.023743,-0.007523,-1.005768,0.023663,0.000756,0.000361,0.999720,0.000379,-0.023661,-0.000361,1.000000,0.000756,0.023661,-0.000747,0.999720,0.023661,-0.000756,-0.999720,0.036734,-0.009376,-0.012564,-0.002365,0.003356,-0.005760,23.408703,27.871487,-1.000000,-1.000000,-1.000000
482149303.637302,-0.064362,-0.010880,-1.033340,0.023649,0.000696,0.000348,0.999720,0.000365,-0.023646,-0.000348,1.000000,0.000696,0.023647,-0.000688,0.999720,0.023646,-0.000696,-0.999720,-0.039500,-0.003698,-0.036642,-0.005248,-0.001334,0.002377,23.408703,27.871487,-1.000000,-1.000000,-1.000000
482149303.647004,-0.020493,-0.007278,-1.023972,0.023649,0.000696,0.000348,0.999720,0.000365,-0.023646,-0.000348,1.000000,0.000696,0.023647,-0.000688,0.999720,0.023646,-0.000696,-0.999720,-0.039500,-0.003698,-0.036642,-0.005248,-0.001334,0.002377,23.408703,27.871487,-1.000000,-1.000000,-1.000000
482149303.657091,0.074905,-0.005325,-1.042557,0.023625,0.000648,0.000371,0.999721,0.000387,-0.023623,-0.000371,1.000000,0.000648,0.023623,-0.000639,0.999721,0.023623,-0.000648,-0.999721,-0.093508,-0.011162,-0.022282,-0.001490,-0.004951,0.000271,23.408703,27.871487,-1.000000,-1.000000,-1.000000
482149303.667228,0.074905,-0.005325,-1.042557,0.023529,0.000647,0.000437,0.999723,0.000452,-0.023527,-0.000437,1.000000,0.000647,0.023527,-0.000636,0.999723,0.023527,-0.000647,-0.999723,-0.087889,-0.010233,-0.033617,-0.006321,-0.003737,0.000004,23.408703,27.871487,-1.000000,-1.000000,-1.000000
482149303.677129,0.138748,-0.006119,-1.004745,0.023555,0.000618,0.000406,0.999723,0.000421,-0.023553,-0.000406,1.000000,0.000618,0.023553,-0.000608,0.999722,0.023553,-0.000618,-0.999722,-0.044045,-0.006661,-0.024249,-0.004848,0.003377,-0.004714,23.408703,27.871487,-1.000000,-1.000000,-1.000000
482149303.687143,0.225937,-0.004013,-0.997589,0.023555,0.000618,0.000406,0.999723,0.000421,-0.023553,-0.000406,1.000000,0.000618,0.023553,-0.000608,0.999722,0.023553,-0.000618,-0.999722,-0.044045,-0.006661,-0.024249,-0.004848,0.003377,-0.004714,23.408703,27.871487,-1.000000,-1.000000,-1.000000
482149303.697077,0.084961,-0.003464,-1.064346,0.023502,0.000603,0.000358,0.999724,0.000372,-0.023499,-0.000358,1.000000,0.000603,0.023500,-0.000595,0.999724,0.023499,-0.000603,-0.999724,0.051406,-0.004722,-0.042833,-0.005045,-0.008527,-0.001041,23.408703,27.871487,-1.000000,-1.000000,-1.000000
482149303.707095,0.066025,-0.009018,-1.007111,0.023484,0.000502,0.000320,0.999724,0.000332,-0.023481,-0.000320,1.000000,0.000502,0.023482,-0.000494,0.999724,0.023481,-0.000502,-0.999724,0.115267,-0.005617,-0.005021,-0.012161,0.001031,-0.003888,23.408703,27.871487,-1.000000,-1.000000,-1.000000
482149303.717025,0.103333,0.000397,-1.001099,0.023453,0.000437,0.000286,0.999725,0.000296,-0.023451,-0.000286,1.000000,0.000437,0.023451,-0.000430,0.999725,0.023451,-0.000437,-0.999725,0.061510,-0.003027,-0.064621,-0.008604,-0.001361,-0.002496,23.408703,27.871487,-1.000000,-1.000000,-1.000000
482149303.727134,0.091476,-0.004105,-1.039642,0.023453,0.000437,0.000286,0.999725,0.000296,-0.023451,-0.000286,1.000000,0.000437,0.023451,-0.000430,0.999725,0.023451,-0.000437,-0.999725,0.061510,-0.003027,-0.064621,-0.008604,-0.001361,-0.002496,23.408703,27.871487,-1.000000,-1.000000,-1.000000
482149303.737068,0.047455,-0.010239,-1.009171,0.023473,0.000390,0.000282,0.999724,0.000291,-0.023471,-0.000282,1.000000,0.000390,0.023471,-0.000384,0.999724,0.023471,-0.000390,-0.999724,0.042554,-0.008628,-0.007386,-0.003974,0.002231,0.001221,23.408703,27.871487,-1.000000,-1.000000,-1.000000
482149303.747078,-0.044189,-0.002762,-1.039047,0.023454,0.000307,0.000312,0.999725,0.000319,-0.023452,-0.000312,1.000000,0.000307,0.023452,-0.000299,0.999725,0.023452,-0.000307,-0.999725,0.079881,0.000703,-0.001374,-0.011489,0.001110,0.005545,23.408703,27.871487,-1.000000,-1.000000,-1.000000
482149303.757136,-0.068146,-0.017914,-1.039322,0.023454,0.000307,0.000312,0.999725,0.000319,-0.023452,-0.000312,1.000000,0.000307,0.023452,-0.000299,0.999725,0.023452,-0.000307,-0.999725,0.079881,0.000703,-0.001374,-0.011489,0.001110,0.005545,23.408703,27.871487,-1.000000,-1.000000,-1.000000
482149303.767053,-0.068146,-0.017914,-1.039322,0.023470,0.000219,0.000365,0.999725,0.000371,-0.023467,-0.000365,1.000000,0.000219,0.023467,-0.000210,0.999725,0.023467,-0.000219,-0.999725,0.068009,-0.003886,-0.039918,-0.006390,-0.000146,0.001127,23.408703,27.871487,-1.000000,-1.000000,-1.000000
482149303.776689,0.041824,-0.006592,-1.030930,0.023378,0.000154,0.000343,0.999727,0.000347,-0.023376,-0.000343,1.000000,0.000154,0.023376,-0.000146,0.999727,0.023376,-0.000154,-0.999727,-0.067566,-0.002608,-0.039321,-0.003839,-0.001371,-0.001074,23.408703,27.871487,-1.000000,-1.000000,-1.000000
482149303.787109,-0.089310,-0.010513,-1.063019,0.023393,0.000107,0.000333,0.999726,0.000336,-0.023391,-0.000333,1.000000,0.000107,0.023391,-0.000099,0.999726,0.023391,-0.000107,-0.999726,-0.091537,-0.017807,-0.039596,-0.005182,0.002236,0.001158,23.408703,27.871487,-1.000000,-1.000000,-1.000000
482149303.797126,-0.041489,-0.010651,-1.037811,0.023393,0.000107,0.000333,0.999726,0.000336,-0.023391,-0.000333,1.000000,0.000107,0.023391,-0.000099,0.999726,0.023391,-0.000107,-0.999726,-0.091537,-0.017807,-0.039596,-0.005182,0.002236,0.001158,23.408703,27.871487,-1.000000,-1.000000,-1.000000
482149303.807066,0.015732,-0.000031,-1.036469,0.023407,0.000007,0.000357,0.999726,0.000357,-0.023405,-0.000357,1.000000,0.000007,0.023405,0.000002,0.999726,0.023405,-0.000007,-0.999726,0.018419,-0.006585,-0.031203,-0.003907,-0.000167,0.000082,23.408703,27.871487,-1.000000,-1.000000,-1.000000
482149303.817064,0.083557,-0.009750,-1.004089,0.023394,-0.000040,0.000342,0.999726,0.000341,-0.023392,-0.000342,1.000000,-0.000040,0.023392,0.000048,0.999726,0.023392,0.000040,-0.999726,-0.112702,-0.010553,-0.063292,-0.007263,-0.000193,-0.004792,23.408703,27.871487,-1.000000,-1.000000,-1.000000
482149303.827080,0.172379,-0.008942,-1.027939,0.023364,-0.000151,0.000356,0.999727,0.000352,-0.023362,-0.000356,1.000000,-0.000151,0.023362,0.000159,0.999727,0.023362,0.000151,-0.999727,-0.007630,-0.000181,-0.036741,-0.006256,-0.000167,-0.001216,23.408703,27.871487,-1.000000,-1.000000,-1.000000
482149303.837002,0.079407,-0.012344,-1.056778,0.023364,-0.000151,0.000356,0.999727,0.000352,-0.023362,-0.000356,1.000000,-0.000151,0.023362,0.000159,0.999727,0.023362,0.000151,-0.999727,-0.007630,-0.000181,-0.036741,-0.006256,-0.000167,-0.001216,23.408703,27.871487,-1.000000,-1.000000,-1.000000
482149303.847089,0.053024,-0.010315,-1.021469,0.023379,-0.000152,0.000309,0.999727,0.000306,-0.023376,-0.000309,1.000000,-0.000152,0.023376,0.000159,0.999727,0.023376,0.000152,-0.999727,0.060181,-0.009902,-0.004363,-0.002499,0.000990,-0.003385,23.408703,27.871487,-1.000000,-1.000000,-1.000000
482149303.857070,0.101303,-0.009750,-1.023438,0.023359,-0.000162,0.000315,0.999727,0.000311,-0.023357,-0.000315,1.000000,-0.000162,0.023357,0.000170,0.999727,0.023357,0.000162,-0.999727,0.056050,-0.012507,-0.057051,-0.001157,0.002158,-0.005681,23.408703,27.871487,-1.000000,-1.000000,-1.000000
482149303.867016,0.095123,-0.010956,-1.037399,0.023359,-0.000162,0.000315,0.999727,0.000311,-0.023357,-0.000315,1.000000,-0.000162,0.023357,0.000170,0.999727,0.023357,0.000162,-0.999727,0.056050,-0.012507,-0.057051,-0.001157,0.002158,-0.005681,23.408703,27.871487,-1.000000,-1.000000,-1.000000
482149303.877131,0.008682,-0.015793,-1.022110,0.023357,-0.000169,0.000279,0.999727,0.000275,-0.023355,-0.000279,1.000000,-0.000169,0.023355,0.000176,0.999727,0.023355,0.000169,-0.999727,0.056052,-0.012513,-0.057051,-0.003573,0.002168,-0.005807,23.408703,27.871487,-1.000000,-1.000000,-1.000000
482149303.887094,0.008682,-0.015793,-1.022110,0.023315,-0.000222,0.000224,0.999728,0.000219,-0.023313,-0.000224,1.000000,-0.000222,0.023313,0.000227,0.999728,0.023313,0.000222,-0.999728,0.077990,-0.009972,-0.023709,-0.006255,-0.003748,-0.001168,23.408703,27.871487,-1.000000,-1.000000,-1.000000
482149303.897156,-0.092300,-0.004364,-1.040939,0.023280,-0.000267,0.000172,0.999729,0.000166,-0.023278,-0.000172,1.000000,-0.000267,0.023278,0.000271,0.999729,0.023278,0.000267,-0.999729,0.071846,-0.011223,-0.037670,-0.000954,-0.005035,-0.009099,23.408703,27.871487,-1.000000,-1.000000,-1.000000
482149303.907058,-0.106995,-0.012512,-1.045593,0.023280,-0.000267,0.000172,0.999729,0.000166,-0.023278,-0.000172,1.000000,-0.000267,0.023278,0.000271,0.999729,0.023278,0.000267,-0.999729,0.071846,-0.011223,-0.037670,-0.000954,-0.005035,-0.009099,23.408703,27.871487,-1.000000,-1.000000,-1.000000
482149303.917063,0.013885,-0.007629,-1.005386,0.023238,-0.000315,0.000128,0.999730,0.000120,-0.023236,-0.000128,1.000000,-0.000315,0.023236,0.000318,0.999730,0.023236,0.000315,-0.999730,-0.014554,-0.016108,-0.022380,-0.002631,-0.004957,-0.000963,23.408703,27.871487,-1.000000,-1.000000,-1.000000
482149303.927120,-0.031982,-0.003891,-1.065475,0.023264,-0.000368,0.000128,0.999729,0.000120,-0.023262,-0.000128,1.000000,-0.000368,0.023262,0.000371,0.999729,0.023262,0.000368,-0.999729,-0.115562,-0.004732,-0.041210,-0.004042,0.001048,0.002408,23.408703,27.871487,-1.000000,-1.000000,-1.000000
482149303.937088,-0.035400,-0.015366,-1.024765,0.023230,-0.000426,0.000176,0.999730,0.000166,-0.023228,-0.000176,1.000000,-0.000426,0.023228,0.000430,0.999730,0.023228,0.000426,-0.999730,-0.009343,-0.008056,-0.005656,-0.000494,-0.007111,0.008589,23.408703,27.871487,-1.000000,-1.000000,-1.000000
482149303.947115,0.019989,-0.005035,-1.044891,0.023230,-0.000426,0.000176,0.999730,0.000166,-0.023228,-0.000176,1.000000,-0.000426,0.023228,0.000430,0.999730,0.023228,0.000426,-0.999730,-0.009343,-0.008056,-0.005656,-0.000494,-0.007111,0.008589,23.408703,27.871487,-1.000000,-1.000000,-1.000000
482149303.957074,0.078568,-0.009796,-1.002441,0.023236,-0.000481,0.000139,0.999730,0.000128,-0.023233,-0.000139,1.000000,-0.000481,0.023233,0.000484,0.999730,0.023233,0.000481,-0.999730,-0.055216,-0.004372,-0.065746,-0.010362,-0.000061,-0.009641,23.408703,27.871487,-1.000000,-1.000000,-1.000000
482149303.967065,0.208191,0.004517,-1.011383,0.023158,-0.000555,0.000041,0.999732,0.000028,-0.023156,-0.000041,1.000000,-0.000555,0.023156,0.000556,0.999732,0.023156,0.000555,-0.999732,-0.003167,-0.005591,-0.045160,-0.004455,-0.003646,-0.006937,23.408703,27.871487,-1.000000,-1.000000,-1.000000
482149303.977116,0.095078,0.000793,-1.049210,0.023158,-0.000555,0.000041,0.999732,0.000028,-0.023156,-0.000041,1.000000,-0.000555,0.023156,0.000556,0.999732,0.023156,0.000555,-0.999732,-0.003167,-0.005591,-0.045160,-0.004455,-0.003646,-0.006937,23.408703,27.871487,-1.000000,-1.000000,-1.000000
482149303.987177,0.089539,-0.009705,-1.005692,0.023152,-0.000571,0.000022,0.999732,0.000008,-0.023150,-0.000022,1.000000,-0.000571,0.023150,0.000572,0.999732,0.023150,0.000571,-0.999732,-0.003161,-0.005607,-0.045160,-0.000027,-0.000023,0.000294,23.408703,27.871487,-1.000000,-1.000000,-1.000000
482149303.997107,0.089539,-0.009705,-1.005692,0.023086,-0.000662,0.000063,0.999734,0.000048,-0.023084,-0.000063,1.000000,-0.000662,0.023084,0.000663,0.999733,0.023084,0.000662,-0.999733,0.185107,0.003855,-0.011650,-0.002643,-0.003562,0.003730,23.408703,27.871487,-1.000000,-1.000000,-1.000000
482149304.007074,0.125839,-0.010422,-1.022934,0.023097,-0.000689,0.000033,0.999733,0.000017,-0.023095,-0.000033,1.000000,-0.000689,0.023095,0.000689,0.999733,0.023095,0.000689,-0.999733,0.071983,0.000105,-0.049477,-0.002109,0.003515,-0.005736,23.408703,27.871487,-1.000000,-1.000000,-1.000000
482149304.017128,0.116348,-0.002869,-1.044006,0.023097,-0.000689,0.000033,0.999733,0.000017,-0.023095,-0.000033,1.000000,-0.000689,0.023095,0.000689,0.999733,0.023095,0.000689,-0.999733,0.071983,0.000105,-0.049477,-0.002109,0.003515,-0.005736,23.408703,27.871487,-1.000000,-1.000000,-1.000000
482149304.026216,0.053635,-0.010040,-0.996170,0.023069,-0.000810,-0.000014,0.999734,-0.000032,-0.023067,0.000014,1.000000,-0.000810,0.023067,0.000809,0.999734,0.023067,0.000810,-0.999734,0.066471,-0.010514,-0.005958,-0.005999,-0.002395,-0.001160,23.408703,27.871487,-1.000000,-1.000000,-1.000000
482149304.037088,-0.047806,-0.001694,-1.025681,0.023057,-0.000797,-0.000070,0.999734,-0.000088,-0.023055,0.000070,1.000000,-0.000797,0.023055,0.000795,0.999734,0.023055,0.000797,-0.999734,0.102784,-0.011219,-0.023200,0.001718,-0.003693,-0.008965,23.408703,27.871487,-1.000000,-1.000000,-1.000000
482149304.047222,-0.055496,-0.011963,-1.052231,0.023014,-0.000860,-0.000017,0.999735,-0.000037,-0.023012,0.000017,1.000000,-0.000860,0.023012,0.000859,0.999735,0.023012,0.000860,-0.999735,0.030623,-0.010900,0.003565,-0.000228,-0.002379,0.003840,23.408703,27.871487,-1.000000,-1.000000,-1.000000
482149304.057110,0.028748,-0.003510,-1.005524,0.023014,-0.000860,-0.000017,0.999735,-0.000037,-0.023012,0.000017,1.000000,-0.000860,0.023012,0.000859,0.999735,0.023012,0.000860,-0.999735,0.030623,-0.010900,0.003565,-0.000228,-0.002379,0.003840,23.408703,27.871487,-1.000000,-1.000000,-1.000000
482149304.067071,-0.061630,-0.005020,-1.044922,0.022997,-0.000881,-0.000042,0.999736,-0.000062,-0.022995,0.000042,1.000000,-0.000881,0.022995,0.000880,0.999735,0.022995,0.000881,-0.999735,-0.070801,-0.002575,-0.025945,-0.003449,-0.002427,-0.003377,23.408703,27.871487,-1.000000,-1.000000,-1.000000
482149304.077072,-0.010590,-0.005981,-1.006866,0.023007,-0.000969,-0.000098,0.999735,-0.000121,-0.023005,0.000098,1.000000,-0.000969,0.023005,0.000966,0.999735,0.023005,0.000969,-0.999735,-0.078501,-0.012932,-0.052496,-0.003382,-0.002437,-0.004548,23.408703,27.871487,-1.000000,-1.000000,-1.000000
482149304.086184,-0.010590,-0.005981,-1.006866,0.023007,-0.000969,-0.000098,0.999735,-0.000121,-0.023005,0.000098,1.000000,-0.000969,0.023005,0.000966,0.999735,0.023005,0.000969,-0.999735,-0.078501,-0.012932,-0.052496,-0.003382,-0.002437,-0.004548,23.408703,27.871487,-1.000000,-1.000000,-1.000000
482149304.097035,0.089462,-0.000931,-1.018433,0.023007,-0.001007,-0.000102,0.999735,-0.000125,-0.023005,0.000102,0.999999,-0.001007,0.023005,0.001004,0.999735,0.023005,0.001007,-0.999735,0.005742,-0.004516,-0.005789,-0.005860,-0.001193,-0.002346,23.408703,27.871487,-1.000000,-1.000000,-1.000000
482149304.107123,0.140778,-0.005524,-1.042496,0.023024,-0.001083,-0.000121,0.999735,-0.000146,-0.023022,0.000121,0.999999,-0.001083,0.023022,0.001080,0.999734,0.023022,0.001083,-0.999734,-0.033611,-0.007064,-0.007132,-0.004519,0.001168,-0.004658,23.408703,27.871487,-1.000000,-1.000000,-1.000000
482149304.117071,0.221878,-0.008011,-0.996796,0.023052,-0.001162,-0.000072,0.999734,-0.000099,-0.023050,0.000072,0.999999,-0.001162,0.023050,0.001160,0.999734,0.023050,0.001162,-0.999734,0.066412,-0.002093,-0.018699,-0.005323,0.002488,0.009381,23.408703,27.871487,-1.000000,-1.000000,-1.000000
482149304.127105,0.096725,-0.000916,-1.025772,0.023052,-0.001162,-0.000072,0.999734,-0.000099,-0.023050,0.000072,0.999999,-0.001162,0.023050,0.001160,0.999734,0.023050,0.001162,-0.999734,0.066412,-0.002093,-0.018699,-0.005323,0.002488,0.009381,23.408703,27.871487,-1.000000,-1.000000,-1.000000
482149304.137102,0.102890,-0.003891,-1.032181,0.023019,-0.001160,-0.000082,0.999735,-0.000109,-0.023017,0.000082,0.999999,-0.001160,0.023017,0.001158,0.999734,0.023017,0.001160,-0.999734,0.117761,-0.006684,-0.042761,-0.002238,0.003566,-0.002221,23.408703,27.871487,-1.000000,-1.000000,-1.000000
482149304.147116,0.117325,-0.002457,-1.007034,0.023019,-0.001181,-0.000113,0.999735,-0.000140,-0.023017,0.000113,0.999999,-0.001181,0.023017,0.001178,0.999734,0.023017,0.001181,-0.999734,0.198861,-0.009192,0.002939,0.000177,0.003556,-0.002096,23.408703,27.871487,-1.000000,-1.000000,-1.000000
482149304.157156,0.100647,-0.005844,-1.027405,0.023019,-0.001181,-0.000113,0.999735,-0.000140,-0.023017,0.000113,0.999999,-0.001181,0.023017,0.001178,0.999734,0.023017,0.001181,-0.999734,0.198861,-0.009192,0.002939,0.000177,0.003556,-0.002096,23.408703,27.871487,-1.000000,-1.000000,-1.000000
482149304.167086,0.017242,-0.009872,-1.032364,0.023018,-0.001283,-0.000180,0.999735,-0.000210,-0.023016,0.000180,0.999999,-0.001283,0.023017,0.001279,0.999734,0.023016,0.001283,-0.999734,0.079874,-0.005174,-0.032447,-0.006867,-0.001219,-0.005923,23.408703,27.871487,-1.000000,-1.000000,-1.000000
482149304.177061,-0.047836,-0.004471,-1.008163,0.022963,-0.001293,-0.000194,0.999736,-0.000223,-0.022961,0.000194,0.999999,-0.001293,0.022962,0.001289,0.999736,0.022961,0.001293,-0.999736,0.094363,-0.003750,-0.007299,-0.003578,-0.002375,0.000138,23.408703,27.871487,-1.000000,-1.000000,-1.000000
482149304.187084,-0.035477,-0.011597,-1.040359,0.022882,-0.001382,-0.000168,0.999738,-0.000200,-0.022880,0.000168,0.999999,-0.001382,0.022880,0.001378,0.999737,0.022880,0.001382,-0.999737,0.077767,-0.007226,-0.027668,-0.004651,-0.005972,-0.002220,23.408703,27.871487,-1.000000,-1.000000,-1.000000
482149304.197051,0.024246,0.002106,-1.029175,0.022882,-0.001382,-0.000168,0.999738,-0.000200,-0.022880,0.000168,0.999999,-0.001382,0.022880,0.001378,0.999737,0.022880,0.001382,-0.999737,0.077767,-0.007226,-0.027668,-0.004651,-0.005972,-0.002220,23.408703,27.871487,-1.000000,-1.000000,-1.000000
482149304.206342,0.024246,0.002106,-1.029175,0.022887,-0.001409,-0.000182,0.999738,-0.000215,-0.022885,0.000182,0.999999,-0.001409,0.022885,0.001404,0.999737,0.022885,0.001409,-0.999737,-0.005643,-0.011281,-0.032627,-0.002238,0.001179,-0.002189,23.408703,27.871487,-1.000000,-1.000000,-1.000000
482149304.217133,0.010086,-0.005737,-1.006607,0.022865,-0.001560,-0.000273,0.999739,-0.000308,-0.022863,0.000273,0.999999,-0.001560,0.022863,0.001554,0.999737,0.022863,0.001560,-0.999737,-0.058339,-0.013157,-0.040622,-0.005592,-0.001235,-0.007031,23.408703,27.871487,-1.000000,-1.000000,-1.000000
482149304.227142,-0.008087,0.001892,-1.012665,0.022859,-0.001593,-0.000282,0.999739,-0.000318,-0.022857,0.000282,0.999999,-0.001593,0.022858,0.001586,0.999737,0.022857,0.001593,-0.999737,0.001389,0.000513,-0.029437,-0.004586,-0.000015,-0.003471,23.408703,27.871487,-1.000000,-1.000000,-1.000000
482149304.236299,0.039749,0.003540,-1.005936,0.022859,-0.001593,-0.000282,0.999739,-0.000318,-0.022857,0.000282,0.999999,-0.001593,0.022858,0.001586,0.999737,0.022857,0.001593,-0.999737,0.001389,0.000513,-0.029437,-0.004586,-0.000015,-0.003471,23.408703,27.871487,-1.000000,-1.000000,-1.000000
482149304.247080,0.101974,-0.009872,-1.036026,0.022843,-0.001673,-0.000322,0.999739,-0.000360,-0.022841,0.000322,0.999999,-0.001673,0.022841,0.001665,0.999738,0.022841,0.001673,-0.999738,-0.030928,0.000220,-0.012927,-0.004579,0.004791,-0.002359,23.408703,27.871487,-1.000000,-1.000000,-1.000000
482149304.257068,0.203293,-0.008453,-1.017334,0.022887,-0.001709,-0.000369,0.999738,-0.000408,-0.022885,0.000369,0.999998,-0.001709,0.022885,0.001700,0.999737,0.022885,0.001709,-0.999737,-0.030972,0.000183,-0.012928,-0.008068,0.003592,-0.004874,23.408703,27.871487,-1.000000,-1.000000,-1.000000
482149304.267000,0.081345,-0.009933,-1.017822,0.022887,-0.001709,-0.000369,0.999738,-0.000408,-0.022885,0.000369,0.999998,-0.001709,0.022885,0.001700,0.999737,0.022885,0.001709,-0.999737,-0.030972,0.000183,-0.012928,-0.008068,0.003592,-0.004874,23.408703,27.871487,-1.000000,-1.000000,-1.000000
482149304.277105,0.078644,-0.010223,-1.041306,0.022876,-0.001773,-0.000360,0.999738,-0.000401,-0.022874,0.000360,0.999998,-0.001773,0.022875,0.001764,0.999737,0.022874,0.001773,-0.999737,0.079100,-0.011646,-0.036289,-0.001489,-0.001107,0.007279,23.408703,27.871487,-1.000000,-1.000000,-1.000000
482149304.286353,0.107986,-0.006653,-1.018234,0.022849,-0.001827,-0.000380,0.999739,-0.000422,-0.022847,0.000380,0.999998,-0.001827,0.022848,0.001818,0.999737,0.022847,0.001827,-0.999737,0.180446,-0.010280,-0.017597,-0.004575,-0.007144,-0.002200,23.408703,27.871487,-1.000000,-1.000000,-1.000000
482149304.297103,0.082260,-0.008133,-1.034317,0.022877,-0.001878,-0.000425,0.999738,-0.000468,-0.022875,0.000425,0.999998,-0.001878,0.022875,0.001868,0.999737,0.022875,0.001878,-0.999737,0.058470,-0.011812,-0.018086,-0.003371,0.003593,-0.002280,23.408703,27.871487,-1.000000,-1.000000,-1.000000
482149304.307337,0.082260,-0.008133,-1.034317,0.022877,-0.001878,-0.000425,0.999738,-0.000468,-0.022875,0.000425,0.999998,-0.001878,0.022875,0.001868,0.999737,0.022875,0.001878,-0.999737,0.058470,-0.011812,-0.018086,-0.003371,0.003593,-0.002280,23.408703,27.871487,-1.000000,-1.000000,-1.000000
482149304.317096,0.024307,-0.007828,-1.034882,0.022899,-0.001912,-0.000392,0.999738,-0.000435,-0.022897,0.000392,0.999998,-0.001912,0.022898,0.001902,0.999736,0.022897,0.001912,-0.999736,0.055747,-0.012135,-0.041570,-0.002430,0.000049,0.002515,23.408703,27.871487,-1.000000,-1.000000,-1.000000
482149304.327107,-0.051910,0.002274,-1.021118,0.022915,-0.001972,-0.000512,0.999737,-0.000557,-0.022913,0.000512,0.999998,-0.001972,0.022914,0.001959,0.999736,0.022913,0.001972,-0.999736,0.059347,-0.010105,-0.034581,-0.007999,-0.002386,-0.005966,23.408703,27.871487,-1.000000,-1.000000,-1.000000
482149304.337042,-0.077026,-0.012039,-1.036026,0.022893,-0.002027,-0.000495,0.999738,-0.000541,-0.022891,0.000495,0.999998,-0.002027,0.022892,0.002015,0.999736,0.022891,0.002027,-0.999736,0.001416,-0.009854,-0.035146,-0.004846,0.001253,0.002374,23.408703,27.871487,-1.000000,-1.000000,-1.000000
482149304.347137,0.011963,-0.001907,-1.022095,0.022893,-0.002027,-0.000495,0.999738,-0.000541,-0.022891,0.000495,0.999998,-0.002027,0.022892,0.002015,0.999736,0.022891,0.002027,-0.999736,0.001416,-0.009854,-0.035146,-0.004846,0.001253,0.002374,23.408703,27.871487,-1.000000,-1.000000,-1.000000
482149304.357067,-0.063614,-0.002075,-1.043137,0.022921,-0.002123,-0.000530,0.999737,-0.000579,-0.022919,0.000530,0.999998,-0.002123,0.022920,0.002110,0.999735,0.022919,0.002123,-0.999735,-0.074830,0.000151,-0.021383,-0.007194,0.000059,0.001093,23.408703,27.871487,-1.000000,-1.000000,-1.000000
482149304.367072,-0.022507,-0.009277,-1.024063,0.022921,-0.002148,-0.000571,0.999737,-0.000620,-0.022919,0.000571,0.999998,-0.002148,0.022920,0.002135,0.999735,0.022919,0.002148,-0.999735,-0.099945,-0.014187,-0.036291,-0.000752,-0.002417,-0.005589,23.408703,27.871487,-1.000000,-1.000000,-1.000000
482149304.377264,0.048767,-0.003342,-1.012115,0.022921,-0.002148,-0.000571,0.999737,-0.000620,-0.022919,0.000571,0.999998,-0.002148,0.022920,0.002135,0.999735,0.022919,0.002148,-0.999735,-0.099945,-0.014187,-0.036291,-0.000752,-0.002417,-0.005589,23.408703,27.871487,-1.000000,-1.000000,-1.000000
482149304.387048,0.111771,-0.003784,-1.032608,0.022921,-0.002237,-0.000655,0.999737,-0.000706,-0.022919,0.000655,0.999997,-0.002237,0.022920,0.002222,0.999735,0.022919,0.002237,-0.999735,-0.086533,-0.004313,-0.043402,-0.011758,0.002424,-0.003875,23.408703,27.871487,-1.000000,-1.000000,-1.000000
482149304.397194,0.202316,-0.005478,-1.016479,0.022921,-0.002325,-0.000649,0.999737,-0.000702,-0.022919,0.000649,0.999997,-0.002325,0.022921,0.002310,0.999735,0.022919,0.002325,-0.999735,-0.045426,-0.011603,-0.024328,-0.007194,0.001252,0.001077,23.408703,27.871487,-1.000000,-1.000000,-1.000000
482149304.407009,0.066467,-0.010300,-1.034271,0.022884,-0.002375,-0.000580,0.999738,-0.000634,-0.022882,0.000580,0.999997,-0.002375,0.022884,0.002361,0.999735,0.022882,0.002375,-0.999735,0.025885,-0.005717,-0.012380,0.006159,-0.000008,0.000613,23.408703,27.871487,-1.000000,-1.000000,-1.000000
482149304.417214,0.066467,-0.010300,-1.034271,0.022884,-0.002375,-0.000580,0.999738,-0.000634,-0.022882,0.000580,0.999997,-0.002375,0.022884,0.002361,0.999735,0.022882,0.002375,-0.999735,0.025885,-0.005717,-0.012380,0.006159,-0.000008,0.000613,23.408703,27.871487,-1.000000,-1.000000,-1.000000
482149304.426691,0.084793,-0.011963,-1.028290,0.022890,-0.002397,-0.000567,0.999738,-0.000622,-0.022888,0.000567,0.999997,-0.002397,0.022890,0.002383,0.999735,0.022888,0.002397,-0.999735,0.088883,-0.006181,-0.032873,-0.007127,-0.002339,-0.000047,23.408703,27.871487,-1.000000,-1.000000,-1.000000
482149304.437081,0.119034,-0.004578,-1.021469,0.022880,-0.002446,-0.000520,0.999738,-0.000576,-0.022878,0.000520,0.999997,-0.002446,0.022880,0.002433,0.999735,0.022878,0.002446,-0.999735,0.043589,-0.012745,-0.034536,-0.003436,-0.002365,-0.001030,23.408703,27.871487,-1.000000,-1.000000,-1.000000
482149304.447085,0.092743,-0.009918,-1.028793,0.022896,-0.002492,-0.000589,0.999738,-0.000646,-0.022894,0.000589,0.999997,-0.002492,0.022896,0.002478,0.999735,0.022894,0.002492,-0.999735,0.061899,-0.014455,-0.028555,-0.004310,0.002362,-0.007012,23.408703,27.871487,-1.000000,-1.000000,-1.000000
482149304.457015,0.029007,-0.005753,-1.029770,0.022896,-0.002492,-0.000589,0.999738,-0.000646,-0.022894,0.000589,0.999997,-0.002492,0.022896,0.002478,0.999735,0.022894,0.002492,-0.999735,0.061899,-0.014455,-0.028555,-0.004310,0.002362,-0.007012,23.408703,27.871487,-1.000000,-1.000000,-1.000000
482149304.467062,-0.062714,0.002914,-1.039276,0.022919,-0.002602,-0.000560,0.999737,-0.000620,-0.022917,0.000560,0.999996,-0.002602,0.022919,0.002588,0.999734,0.022917,0.002602,-0.999734,0.096117,-0.007179,-0.021735,-0.011825,0.001241,-0.002688,23.408703,27.871487,-1.000000,-1.000000,-1.000000
482149304.477064,0.012329,-0.010727,-1.014191,0.022870,-0.002662,-0.000548,0.999738,-0.000609,-0.022868,0.000548,0.999996,-0.002662,0.022870,0.002649,0.999735,0.022868,0.002662,-0.999735,0.069874,-0.012580,-0.029058,-0.008334,-0.005915,-0.000062,23.408703,27.871487,-1.000000,-1.000000,-1.000000
482149304.487094,0.006927,-0.007904,-1.022324,0.022870,-0.002662,-0.000548,0.999738,-0.000609,-0.022868,0.000548,0.999996,-0.002662,0.022870,0.002649,0.999735,0.022868,0.002662,-0.999735,0.069874,-0.012580,-0.029058,-0.008334,-0.005915,-0.000062,23.408703,27.871487,-1.000000,-1.000000,-1.000000
482149304.497074,-0.054581,0.002197,-1.026138,0.022916,-0.002746,-0.000475,0.999737,-0.000538,-0.022914,0.000475,0.999996,-0.002746,0.022915,0.002734,0.999734,0.022914,0.002746,-0.999734,-0.085627,0.000169,-0.039542,-0.006255,0.002483,0.005809,23.408703,27.871487,-1.000000,-1.000000,-1.000000
482149304.507104,0.012039,-0.006912,-1.025909,0.022901,-0.002857,-0.000427,0.999738,-0.000493,-0.022899,0.000427,0.999996,-0.002857,0.022900,0.002847,0.999734,0.022899,0.002857,-0.999734,-0.010569,-0.013584,-0.014457,-0.009945,-0.001072,0.006839,23.408703,27.871487,-1.000000,-1.000000,-1.000000
482149304.516502,0.012039,-0.006912,-1.025909,0.022897,-0.002924,-0.000359,0.999738,-0.000426,-0.022894,0.000359,0.999996,-0.002924,0.022896,0.002915,0.999734,0.022894,0.002924,-0.999734,-0.015967,-0.010828,-0.022590,-0.002363,0.000038,0.001344,23.408703,27.871487,-1.000000,-1.000000,-1.000000
482149304.526990,0.058029,-0.001312,-1.019348,0.022897,-0.002924,-0.000359,0.999738,-0.000426,-0.022894,0.000359,0.999996,-0.002924,0.022896,0.002915,0.999734,0.022894,0.002924,-0.999734,-0.015967,-0.010828,-0.022590,-0.002363,0.000038,0.001344,23.408703,27.871487,-1.000000,-1.000000,-1.000000
482149304.536978,0.122589,-0.010605,-1.035751,0.022925,-0.003018,-0.000327,0.999737,-0.000396,-0.022923,0.000327,0.999995,-0.003018,0.022924,0.003010,0.999733,0.022923,0.003018,-0.999733,-0.077503,-0.000821,-0.026406,-0.015717,0.002492,0.001792,23.408703,27.871487,-1.000000,-1.000000,-1.000000
482149304.546970,0.183563,-0.000717,-1.012787,0.022854,-0.003131,-0.000351,0.999739,-0.000423,-0.022852,0.000351,0.999995,-0.003131,0.022853,0.003123,0.999734,0.022852,0.003131,-0.999734,0.035177,-0.004444,-0.019614,-0.002295,-0.003553,0.000221,23.408703,27.871487,-1.000000,-1.000000,-1.000000
482149304.557034,0.083054,-0.001495,-0.972183,0.022838,-0.003119,-0.000359,0.999739,-0.000430,-0.022836,0.000359,0.999995,-0.003119,0.022837,0.003110,0.999734,0.022836,0.003119,-0.999734,0.099754,-0.013724,-0.036017,0.001395,-0.001192,-0.000794,23.408703,27.871487,-1.000000,-1.000000,-1.000000
482149304.566218,0.096115,-0.002991,-1.033569,0.022838,-0.003119,-0.000359,0.999739,-0.000430,-0.022836,0.000359,0.999995,-0.003119,0.022837,0.003110,0.999734,0.022836,0.003119,-0.999734,0.099754,-0.013724,-0.036017,0.001395,-0.001192,-0.000794,23.408703,27.871487,-1.000000,-1.000000,-1.000000
482149304.577037,0.094742,-0.009903,-1.029663,0.022865,-0.003164,-0.000425,0.999739,-0.000497,-0.022863,0.000425,0.999995,-0.003164,0.022864,0.003154,0.999734,0.022863,0.003164,-0.999734,0.160701,-0.003881,-0.013053,0.001527,0.002368,-0.003184,23.408703,27.871487,-1.000000,-1.000000,-1.000000
482149304.586630,0.102417,-0.014542,-1.009720,0.022860,-0.003208,-0.000402,0.999739,-0.000475,-0.022858,0.000402,0.999995,-0.003208,0.022859,0.003198,0.999734,0.022858,0.003208,-0.999734,0.060196,-0.004703,0.027550,-0.008334,-0.004721,-0.000078,23.408703,27.871487,-1.000000,-1.000000,-1.000000
482149304.597024,0.027100,-0.005981,-1.049301,0.022860,-0.003208,-0.000402,0.999739,-0.000475,-0.022858,0.000402,0.999995,-0.003208,0.022859,0.003198,0.999734,0.022858,0.003208,-0.999734,0.060196,-0.004703,0.027550,-0.008334,-0.004721,-0.000078,23.408703,27.871487,-1.000000,-1.000000,-1.000000
482149304.606971,-0.032608,-0.006378,-1.017914,0.022789,-0.003210,-0.000423,0.999740,-0.000496,-0.022787,0.000423,0.999995,-0.003210,0.022788,0.003200,0.999735,0.022787,0.003210,-0.999735,0.071955,-0.013113,-0.029928,-0.004577,-0.003564,-0.002248,23.408703,27.871487,-1.000000,-1.000000,-1.000000
482149304.616965,-0.069122,-0.011765,-1.018082,0.022783,-0.003210,-0.000404,0.999740,-0.000477,-0.022781,0.000404,0.999995,-0.003210,0.022783,0.003200,0.999735,0.022781,0.003210,-0.999735,0.079636,-0.017751,-0.009985,-0.001155,-0.002354,0.001439,23.408703,27.871487,-1.000000,-1.000000,-1.000000
482149304.626059,-0.069122,-0.011765,-1.018082,0.022833,-0.003300,-0.000472,0.999739,-0.000547,-0.022831,0.000472,0.999994,-0.003300,0.022832,0.003288,0.999734,0.022831,0.003300,-0.999734,0.004269,-0.009281,-0.049567,0.000185,0.003587,-0.000921,23.408703,27.871487,-1.000000,-1.000000,-1.000000
482149304.637024,-0.021149,-0.001785,-1.064865,0.022833,-0.003300,-0.000472,0.999739,-0.000547,-0.022831,0.000472,0.999994,-0.003300,0.022832,0.003288,0.999734,0.022831,0.003300,-0.999734,0.004269,-0.009281,-0.049567,0.000185,0.003587,-0.000921,23.408703,27.871487,-1.000000,-1.000000,-1.000000
482149304.646978,-0.071365,-0.002960,-1.027069,0.022866,-0.003299,-0.000459,0.999738,-0.000534,-0.022864,0.000459,0.999994,-0.003299,0.022865,0.003287,0.999733,0.022864,0.003299,-0.999733,-0.055472,-0.009677,-0.018181,0.000186,0.002394,-0.000905,23.408703,27.871487,-1.000000,-1.000000,-1.000000
482149304.657044,0.016129,-0.009079,-1.047974,0.022888,-0.003330,-0.000444,0.999738,-0.000520,-0.022886,0.000444,0.999994,-0.003330,0.022888,0.003319,0.999733,0.022886,0.003330,-0.999733,-0.044035,-0.005115,-0.065133,-0.004914,0.001263,0.003545,23.408703,27.871487,-1.000000,-1.000000,-1.000000
482149304.666978,0.023178,-0.003647,-1.011703,0.022872,-0.003406,-0.000465,0.999738,-0.000542,-0.022870,0.000465,0.999994,-0.003406,0.022872,0.003395,0.999733,0.022870,0.003406,-0.999733,-0.094235,-0.006366,-0.027336,-0.006725,-0.002402,-0.007074,23.408703,27.871487,-1.000000,-1.000000,-1.000000
482149304.676572,0.111023,-0.006424,-1.001526,0.022872,-0.003406,-0.000465,0.999738,-0.000542,-0.022870,0.000465,0.999994,-0.003406,0.022872,0.003395,0.999733,0.022870,0.003406,-0.999733,-0.094235,-0.006366,-0.027336,-0.006725,-0.002402,-0.007074,23.408703,27.871487,-1.000000,-1.000000,-1.000000
482149304.686912,0.175339,0.004807,-1.040558,0.022867,-0.003491,-0.000510,0.999738,-0.000590,-0.022865,0.000510,0.999994,-0.003491,0.022867,0.003478,0.999732,0.022865,0.003491,-0.999732,-0.006736,-0.012570,-0.048241,-0.004579,0.001210,-0.002311,23.408703,27.871487,-1.000000,-1.000000,-1.000000
482149304.696980,0.065872,-0.009781,-0.985733,0.022878,-0.003484,-0.000507,0.999738,-0.000587,-0.022876,0.000507,0.999994,-0.003484,0.022878,0.003472,0.999732,0.022876,0.003484,-0.999732,0.000302,-0.007131,-0.011971,0.001393,0.001195,-0.000826,23.408703,27.871487,-1.000000,-1.000000,-1.000000
482149304.706377,0.084030,-0.005081,-1.029388,0.022878,-0.003484,-0.000507,0.999738,-0.000587,-0.022876,0.000507,0.999994,-0.003484,0.022878,0.003472,0.999732,0.022876,0.003484,-0.999732,0.000302,-0.007131,-0.011971,0.001393,0.001195,-0.000826,23.408703,27.871487,-1.000000,-1.000000,-1.000000
482149304.716972,0.110550,-0.006927,-1.048187,0.022890,-0.003632,-0.000517,0.999738,-0.000600,-0.022888,0.000517,0.999993,-0.003632,0.022890,0.003619,0.999731,0.022888,0.003632,-0.999731,0.152451,0.001175,-0.040826,-0.001423,-0.002312,0.006124,23.408703,27.871487,-1.000000,-1.000000,-1.000000
482149304.727008,0.085709,-0.008774,-1.006897,0.022846,-0.003642,-0.000509,0.999739,-0.000592,-0.022844,0.000509,0.999993,-0.003642,0.022846,0.003629,0.999732,0.022844,0.003642,-0.999732,0.043028,-0.013423,0.013999,-0.002027,-0.004789,-0.004448,23.408703,27.871487,-1.000000,-1.000000,-1.000000
482149304.737023,0.026901,-0.008743,-1.028870,0.022770,-0.003602,-0.000469,0.999741,-0.000551,-0.022768,0.000469,0.999993,-0.003602,0.022770,0.003590,0.999734,0.022768,0.003602,-0.999734,0.061262,-0.008683,-0.029654,0.003744,-0.005966,0.000566,23.408703,27.871487,-1.000000,-1.000000,-1.000000
482149304.746862,0.026901,-0.008743,-1.028870,0.022770,-0.003602,-0.000469,0.999741,-0.000551,-0.022768,0.000469,0.999993,-0.003602,0.022770,0.003590,0.999734,0.022768,0.003602,-0.999734,0.061262,-0.008683,-0.029654,0.003744,-0.005966,0.000566,23.408703,27.871487,-1.000000,-1.000000,-1.000000
482149304.757064,-0.040833,-0.000824,-1.045670,0.022743,-0.003629,-0.000451,0.999741,-0.000533,-0.022741,0.000451,0.999993,-0.003629,0.022743,0.003617,0.999735,0.022741,0.003629,-0.999735,0.087809,-0.010556,-0.048452,-0.000148,-0.002328,0.005015,23.408703,27.871487,-1.000000,-1.000000,-1.000000
482149304.767110,-0.062592,-0.012589,-1.011856,0.022723,-0.003723,-0.000383,0.999742,-0.000468,-0.022721,0.000383,0.999993,-0.003723,0.022722,0.003713,0.999735,0.022721,0.003723,-0.999735,0.004181,-0.012466,-0.029135,-0.007195,0.000059,0.001093,23.408703,27.871487,-1.000000,-1.000000,-1.000000
482149304.777115,0.003937,-0.001389,-1.055603,0.022723,-0.003723,-0.000383,0.999742,-0.000468,-0.022721,0.000383,0.999993,-0.003723,0.022722,0.003713,0.999735,0.022721,0.003723,-0.999735,0.004181,-0.012466,-0.029135,-0.007195,0.000059,0.001093,23.408703,27.871487,-1.000000,-1.000000,-1.000000
482149304.787088,-0.021042,-0.004196,-1.012405,0.022734,-0.003766,-0.000382,0.999741,-0.000467,-0.022732,0.000382,0.999993,-0.003766,0.022733,0.003757,0.999735,0.022732,0.003766,-0.999735,-0.063564,-0.004590,-0.045935,-0.007195,0.001252,0.001077,23.408703,27.871487,-1.000000,-1.000000,-1.000000
482149304.796828,0.005585,0.000687,-1.048737,0.022751,-0.003852,-0.000395,0.999741,-0.000483,-0.022749,0.000395,0.999992,-0.003852,0.022750,0.003842,0.999734,0.022749,0.003852,-0.999734,-0.018812,-0.005241,-0.055869,0.000320,-0.000015,-0.003216,23.408703,27.871487,-1.000000,-1.000000,-1.000000
482149304.807108,0.069778,-0.010117,-1.022415,0.022751,-0.003890,-0.000394,0.999741,-0.000482,-0.022749,0.000394,0.999992,-0.003890,0.022751,0.003880,0.999734,0.022749,0.003890,-0.999734,-0.018812,-0.005279,-0.055869,-0.009477,0.001241,-0.001392,23.408703,27.871487,-1.000000,-1.000000,-1.000000
482149304.817105,0.141342,-0.009995,-0.999664,0.022751,-0.003890,-0.000394,0.999741,-0.000482,-0.022749,0.000394,0.999992,-0.003890,0.022751,0.003880,0.999734,0.022749,0.003890,-0.999734,-0.018812,-0.005279,-0.055869,-0.009477,0.001241,-0.001392,23.408703,27.871487,-1.000000,-1.000000,-1.000000
482149304.827078,0.230209,-0.002441,-1.040085,0.022823,-0.003849,-0.000399,0.999739,-0.000487,-0.022820,0.000399,0.999992,-0.003849,0.022822,0.003838,0.999732,0.022820,0.003849,-0.999732,-0.017236,-0.003162,-0.049004,0.001594,0.002357,-0.004356,23.408703,27.871487,-1.000000,-1.000000,-1.000000
482149304.837204,0.070053,-0.008987,-1.008820,0.022828,-0.003875,-0.000413,0.999739,-0.000502,-0.022826,0.000413,0.999992,-0.003875,0.022828,0.003864,0.999732,0.022826,0.003875,-0.999732,0.046952,-0.013991,-0.022683,-0.003571,-0.002344,0.001313,0.000000,0.000000,-1.000000,-1.000000,-1.000000
482149304.847023,0.103714,-0.006622,-1.011673,0.022812,-0.003911,-0.000444,0.999740,-0.000533,-0.022809,0.000444,0.999992,-0.003911,0.022811,0.003900,0.999732,0.022809,0.003911,-0.999732,0.118533,-0.013906,0.000068,0.000254,-0.003585,-0.001996,0.000000,0.000000,-1.000000,-1.000000,-1.000000
482149304.857040,0.131287,0.001251,-1.046066,0.022785,-0.003973,-0.000394,0.999740,-0.000484,-0.022783,0.000394,0.999992,-0.003973,0.022785,0.003963,0.999733,0.022783,0.003973,-0.999733,0.207426,-0.006414,-0.040352,-0.009677,-0.002308,0.002170,0.000000,0.000000,-1.000000,-1.000000,-1.000000
482149304.866759,0.131287,0.001251,-1.046066,0.022759,-0.004054,-0.000366,0.999741,-0.000458,-0.022757,0.000366,0.999992,-0.004054,0.022758,0.004045,0.999733,0.022757,0.004054,-0.999733,0.207453,-0.006496,-0.040352,-0.009236,-0.002911,-0.002429,23.136751,27.599537,-1.000000,-1.000000,-1.000000
482149304.877109,0.098572,-0.001678,-1.005249,0.022733,-0.004127,-0.000355,0.999741,-0.000449,-0.022731,0.000355,0.999991,-0.004127,0.022732,0.004118,0.999733,0.022731,0.004127,-0.999733,0.080983,-0.010749,-0.011940,-0.008095,-0.002905,-0.001195,23.136751,27.599537,-1.000000,-1.000000,-1.000000
482149304.887059,0.009567,-0.004837,-1.015411,0.022733,-0.004127,-0.000355,0.999741,-0.000449,-0.022731,0.000355,0.999991,-0.004127,0.022732,0.004118,0.999733,0.022731,0.004127,-0.999733,0.080983,-0.010749,-0.011940,-0.008095,-0.002905,-0.001195,23.136751,27.599537,-1.000000,-1.000000,-1.000000
482149304.897067,-0.062683,0.001938,-1.040222,0.022723,-0.004186,-0.000337,0.999742,-0.000432,-0.022721,0.000337,0.999991,-0.004186,0.022722,0.004177,0.999733,0.022721,0.004186,-0.999733,0.108566,-0.002934,-0.046333,-0.009437,-0.001685,0.001069,23.136751,27.599537,-1.000000,-1.000000,-1.000000
482149304.907065,-0.074432,-0.007965,-1.027191,0.022712,-0.004266,-0.000430,0.999742,-0.000527,-0.022710,0.000430,0.999991,-0.004266,0.022712,0.004255,0.999733,0.022710,0.004266,-0.999733,-0.013143,-0.009103,-0.015678,-0.007761,-0.000570,-0.007083,23.136751,27.599537,-1.000000,-1.000000,-1.000000
482149304.917090,0.012466,-0.003204,-1.050217,0.022690,-0.004334,-0.000466,0.999742,-0.000564,-0.022688,0.000466,0.999991,-0.004334,0.022691,0.004322,0.999733,0.022688,0.004334,-0.999733,-0.013121,-0.009171,-0.015678,-0.006687,-0.002942,-0.004645,23.143259,27.606045,-1.000000,-1.000000,-1.000000
482149304.927258,-0.004395,-0.008148,-1.031738,0.022690,-0.004334,-0.000466,0.999742,-0.000564,-0.022688,0.000466,0.999991,-0.004334,0.022691,0.004322,0.999733,0.022688,0.004334,-0.999733,-0.013121,-0.009171,-0.015678,-0.006687,-0.002942,-0.004645,23.143259,27.606045,-1.000000,-1.000000,-1.000000
482149304.937025,-0.107300,0.002441,-1.033188,0.022746,-0.004389,-0.000478,0.999741,-0.000578,-0.022744,0.000478,0.999990,-0.004389,0.022746,0.004377,0.999732,0.022744,0.004389,-0.999732,-0.097177,-0.012354,-0.027459,-0.006754,-0.000544,-0.003506,23.143259,27.606045,-1.000000,-1.000000,-1.000000
482149304.947064,0.031418,-0.005814,-1.038361,0.022702,-0.004401,-0.000518,0.999742,-0.000617,-0.022700,0.000518,0.999990,-0.004401,0.022703,0.004388,0.999733,0.022700,0.004401,-0.999733,-0.010234,-0.007606,-0.050484,-0.001855,-0.005349,-0.004362,23.143259,27.606045,-1.000000,-1.000000,-1.000000
482149304.957323,0.097748,-0.011856,-1.031403,0.022688,-0.004442,-0.000474,0.999743,-0.000575,-0.022686,0.000474,0.999990,-0.004442,0.022688,0.004430,0.999733,0.022686,0.004442,-0.999733,-0.129985,-0.002000,-0.033455,-0.001116,-0.004087,0.003884,23.143259,27.606045,-1.000000,-1.000000,-1.000000
482149304.967096,0.172150,-0.007889,-1.023102,0.022688,-0.004442,-0.000474,0.999743,-0.000575,-0.022686,0.000474,0.999990,-0.004442,0.022688,0.004430,0.999733,0.022686,0.004442,-0.999733,-0.129985,-0.002000,-0.033455,-0.001116,-0.004087,0.003884,23.143259,27.606045,-1.000000,-1.000000,-1.000000
482149304.977241,0.172150,-0.007889,-1.023102,0.022649,-0.004432,-0.000508,0.999743,-0.000608,-0.022647,0.000508,0.999990,-0.004432,0.022650,0.004419,0.999734,0.022647,0.004432,-0.999734,-0.129947,-0.001990,-0.033454,0.004319,-0.005396,-0.006391,23.150612,27.613396,-1.000000,-1.000000,-1.000000
482149304.987044,0.036057,-0.010666,-1.035110,0.022590,-0.004509,-0.000535,0.999745,-0.000637,-0.022588,0.000535,0.999990,-0.004509,0.022590,0.004495,0.999735,0.022588,0.004509,-0.999735,0.075160,-0.016365,-0.031668,-0.009371,-0.000502,-0.000118,23.150612,27.613396,-1.000000,-1.000000,-1.000000
482149304.997241,0.086838,-0.012985,-1.030090,0.022590,-0.004509,-0.000535,0.999745,-0.000637,-0.022588,0.000535,0.999990,-0.004509,0.022590,0.004495,0.999735,0.022588,0.004509,-0.999735,0.075160,-0.016365,-0.031668,-0.009371,-0.000502,-0.000118,23.150612,27.613396,-1.000000,-1.000000,-1.000000
482149305.007063,0.117783,-0.002731,-1.034195,0.022580,-0.004546,-0.000500,0.999745,-0.000603,-0.022578,0.000500,0.999990,-0.004546,0.022580,0.004533,0.999735,0.022578,0.004546,-0.999735,0.149572,-0.012435,-0.023367,-0.001184,-0.001690,0.005023,23.150612,27.613396,-1.000000,-1.000000,-1.000000
482149305.017117,0.097763,-0.009872,-1.030441,0.022602,-0.004572,-0.000554,0.999744,-0.000657,-0.022600,0.000554,0.999989,-0.004572,0.022603,0.004558,0.999734,0.022600,0.004572,-0.999734,0.064238,-0.017557,-0.030356,-0.004137,-0.002973,-0.006862,23.150612,27.613396,-1.000000,-1.000000,-1.000000
482149305.027085,0.060104,-0.009277,-1.024948,0.022608,-0.004629,-0.000590,0.999744,-0.000695,-0.022606,0.000590,0.999989,-0.004629,0.022609,0.004614,0.999734,0.022606,0.004629,-0.999734,0.064232,-0.017614,-0.030357,-0.005615,0.001848,-0.002304,23.154139,27.616924,-1.000000,-1.000000,-1.000000
482149305.037052,-0.041885,-0.001831,-1.044754,0.022608,-0.004629,-0.000590,0.999744,-0.000695,-0.022606,0.000590,0.999989,-0.004629,0.022609,0.004614,0.999734,0.022606,0.004629,-0.999734,0.064232,-0.017614,-0.030357,-0.005615,0.001848,-0.002304,23.154139,27.616924,-1.000000,-1.000000,-1.000000
482149305.047066,-0.073654,-0.015854,-1.027054,0.022608,-0.004598,-0.000680,0.999744,-0.000784,-0.022605,0.000680,0.999989,-0.004598,0.022609,0.004581,0.999734,0.022605,0.004598,-0.999734,0.075158,-0.014470,-0.030707,0.000425,0.001823,-0.001990,23.154139,27.616924,-1.000000,-1.000000,-1.000000
482149305.057163,-0.001785,-0.003265,-1.041351,0.022597,-0.004661,-0.000705,0.999744,-0.000810,-0.022595,0.000705,0.999989,-0.004661,0.022598,0.004643,0.999734,0.022595,0.004661,-0.999734,0.037509,-0.013938,-0.025214,-0.004272,-0.001759,-0.004536,23.154139,27.616924,-1.000000,-1.000000,-1.000000
482149305.067486,-0.034103,-0.008255,-1.009232,0.022564,-0.004686,-0.000764,0.999745,-0.000869,-0.022562,0.000764,0.999989,-0.004686,0.022566,0.004668,0.999734,0.022562,0.004686,-0.999734,-0.096216,-0.020540,-0.027319,-0.005614,-0.001733,-0.002256,23.154139,27.616924,-1.000000,-1.000000,-1.000000
482149305.076254,-0.034103,-0.008255,-1.009232,0.022564,-0.004686,-0.000764,0.999745,-0.000869,-0.022562,0.000764,0.999989,-0.004686,0.022566,0.004668,0.999734,0.022562,0.004686,-0.999734,-0.096216,-0.020540,-0.027319,-0.005614,-0.001733,-0.002256,23.161016,27.623802,-1.000000,-1.000000,-1.000000
482149305.087248,-0.066895,0.006912,-1.032761,0.022582,-0.004728,-0.000767,0.999745,-0.000874,-0.022579,0.000767,0.999989,-0.004728,0.022583,0.004709,0.999734,0.022579,0.004728,-0.999734,-0.096234,-0.020581,-0.027320,-0.000851,0.003032,-0.000897,23.161016,27.623802,-1.000000,-1.000000,-1.000000
482149305.097034,0.044312,-0.002487,-1.020142,0.022577,-0.004787,-0.000805,0.999745,-0.000913,-0.022575,0.000805,0.999988,-0.004787,0.022579,0.004768,0.999734,0.022575,0.004787,-0.999734,-0.056678,-0.013042,-0.009498,-0.005680,-0.005303,-0.001037,23.161016,27.623802,-1.000000,-1.000000,-1.000000
482149305.107033,0.129074,-0.009460,-1.027603,0.022577,-0.004787,-0.000805,0.999745,-0.000913,-0.022575,0.000805,0.999988,-0.004787,0.022579,0.004768,0.999734,0.022575,0.004787,-0.999734,-0.056678,-0.013042,-0.009498,-0.005680,-0.005303,-0.001037,23.161016,27.623802,-1.000000,-1.000000,-1.000000
482149305.117075,0.199875,-0.004440,-1.006912,0.022566,-0.004838,-0.000852,0.999745,-0.000961,-0.022564,0.000852,0.999988,-0.004838,0.022568,0.004818,0.999734,0.022564,0.004838,-0.999734,-0.089458,0.002074,-0.033027,-0.007963,-0.000539,-0.003569,23.161016,27.623802,-1.000000,-1.000000,-1.000000
482149305.127102,0.078201,-0.009933,-1.014130,0.022560,-0.004962,-0.000957,0.999745,-0.001068,-0.022558,0.000957,0.999987,-0.004962,0.022563,0.004940,0.999733,0.022558,0.004962,-0.999733,0.106516,-0.014423,-0.027870,-0.002058,0.001843,-0.000944,23.167593,27.630379,-1.000000,-1.000000,-1.000000
482149305.137044,0.093536,-0.015823,-1.027710,0.022528,-0.004999,-0.000954,0.999746,-0.001066,-0.022526,0.000954,0.999987,-0.004999,0.022531,0.004976,0.999734,0.022526,0.004999,-0.999734,0.106548,-0.014459,-0.027869,0.002776,-0.006532,-0.000582,23.167593,27.630379,-1.000000,-1.000000,-1.000000
482149305.147148,0.097717,-0.004105,-1.046066,0.022528,-0.004999,-0.000954,0.999746,-0.001066,-0.022526,0.000954,0.999987,-0.004999,0.022531,0.004976,0.999734,0.022526,0.004999,-0.999734,0.106548,-0.014459,-0.027869,0.002776,-0.006532,-0.000582,23.167593,27.630379,-1.000000,-1.000000,-1.000000
482149305.157065,0.105804,-0.011581,-1.016342,0.022530,-0.005045,-0.000906,0.999746,-0.001019,-0.022528,0.000905,0.999987,-0.005045,0.022533,0.005023,0.999734,0.022528,0.005045,-0.999734,0.055673,-0.014978,-0.014396,-0.001857,0.000618,-0.004442,23.167593,27.630379,-1.000000,-1.000000,-1.000000
482149305.167059,-0.000290,-0.005142,-1.033478,0.022487,-0.005069,-0.000913,0.999747,-0.001027,-0.022484,0.000913,0.999987,-0.005069,0.022489,0.005047,0.999734,0.022484,0.005069,-0.999734,0.071052,-0.020893,-0.027976,-0.003331,-0.006496,0.000276,23.167593,27.630379,-1.000000,-1.000000,-1.000000
482149305.177296,-0.091965,-0.003235,-1.028305,0.022454,-0.005051,-0.000949,0.999747,-0.001062,-0.022452,0.000949,0.999987,-0.005051,0.022457,0.005029,0.999735,0.022452,0.005051,-0.999735,0.083353,-0.016633,-0.016607,-0.000919,0.004236,0.000258,23.170879,27.633663,-1.000000,-1.000000,-1.000000
482149305.187131,-0.091965,-0.003235,-1.028305,0.022454,-0.005051,-0.000949,0.999747,-0.001062,-0.022452,0.000949,0.999987,-0.005051,0.022457,0.005029,0.999735,0.022452,0.005051,-0.999735,0.083353,-0.016633,-0.016607,-0.000919,0.004236,0.000258,23.170879,27.633663,-1.000000,-1.000000,-1.000000
482149305.197050,-0.085297,-0.011063,-1.027802,0.022444,-0.005082,-0.000930,0.999748,-0.001044,-0.022442,0.000930,0.999987,-0.005082,0.022447,0.005060,0.999735,0.022442,0.005082,-0.999735,0.083363,-0.016664,-0.016607,-0.002057,-0.002931,-0.000881,23.170879,27.633663,-1.000000,-1.000000,-1.000000
482149305.207064,0.003479,-0.000488,-1.065369,0.022401,-0.005164,-0.000957,0.999749,-0.001073,-0.022399,0.000957,0.999986,-0.005164,0.022404,0.005142,0.999736,0.022399,0.005164,-0.999736,-0.114364,-0.008399,-0.028569,-0.003465,-0.004088,0.002586,23.170879,27.633663,-1.000000,-1.000000,-1.000000
482149305.217102,-0.067291,-0.012680,-1.016022,0.022401,-0.005164,-0.000957,0.999749,-0.001073,-0.022399,0.000957,0.999986,-0.005164,0.022404,0.005142,0.999736,0.022399,0.005164,-0.999736,-0.114364,-0.008399,-0.028569,-0.003465,-0.004088,0.002586,23.170879,27.633663,-1.000000,-1.000000,-1.000000
482149305.227382,0.010010,-0.006119,-1.042542,0.022390,-0.005194,-0.000971,0.999749,-0.001087,-0.022388,0.000971,0.999986,-0.005194,0.022394,0.005171,0.999736,0.022388,0.005194,-0.999736,-0.107685,-0.016257,-0.028066,-0.003334,0.003052,0.000148,23.170879,27.633663,-1.000000,-1.000000,-1.000000
482149305.237081,0.045288,-0.002472,-1.020081,0.022365,-0.005322,-0.000968,0.999749,-0.001087,-0.022362,0.000968,0.999985,-0.005322,0.022368,0.005299,0.999736,0.022362,0.005322,-0.999736,-0.018883,-0.005811,-0.065633,-0.006956,-0.001706,0.000023,23.178223,27.641006,-1.000000,-1.000000,-1.000000
482149305.247068,0.146408,-0.011963,-1.003220,0.022365,-0.005348,-0.000955,0.999749,-0.001074,-0.022363,0.000955,0.999985,-0.005348,0.022369,0.005325,0.999736,0.022363,0.005348,-0.999736,-0.089654,-0.018028,-0.016286,-0.006957,0.001874,-0.000024,23.178223,27.641006,-1.000000,-1.000000,-1.000000
482149305.257071,0.211304,-0.007584,-1.038239,0.022365,-0.005348,-0.000955,0.999749,-0.001074,-0.022363,0.000955,0.999985,-0.005348,0.022369,0.005325,0.999736,0.022363,0.005348,-0.999736,-0.089654,-0.018028,-0.016286,-0.006957,0.001874,-0.000024,23.178223,27.641006,-1.000000,-1.000000,-1.000000
482149305.267061,0.064957,-0.013199,-1.025574,0.022284,-0.005425,-0.000960,0.999751,-0.001081,-0.022282,0.000960,0.999985,-0.005425,0.022288,0.005402,0.999737,0.022282,0.005425,-0.999737,0.023006,-0.007897,-0.020344,-0.003264,-0.005313,-0.000912,23.178223,27.641006,-1.000000,-1.000000,-1.000000
482149305.276109,0.064957,-0.013199,-1.025574,0.022307,-0.005439,-0.000952,0.999751,-0.001073,-0.022305,0.000952,0.999985,-0.005439,0.022310,0.005417,0.999736,0.022305,0.005439,-0.999736,0.124103,-0.017402,-0.003483,-0.000985,0.003053,0.001445,23.178223,27.641006,-1.000000,-1.000000,-1.000000
482149305.287100,0.094254,-0.004837,-1.018097,0.022307,-0.005439,-0.000952,0.999751,-0.001073,-0.022305,0.000952,0.999985,-0.005439,0.022310,0.005417,0.999736,0.022305,0.005439,-0.999736,0.124103,-0.017402,-0.003483,-0.000985,0.003053,0.001445,23.181444,27.644230,-1.000000,-1.000000,-1.000000
482149305.297068,0.124298,-0.003586,-1.027969,0.022270,-0.005456,-0.000945,0.999752,-0.001066,-0.022267,0.000945,0.999985,-0.005456,0.022273,0.005434,0.999737,0.022267,0.005456,-0.999737,0.189036,-0.013040,-0.038501,0.000491,0.000618,-0.003145,23.181444,27.644230,-1.000000,-1.000000,-1.000000
482149305.307072,0.078827,-0.009048,-1.025757,0.022281,-0.005486,-0.000948,0.999751,-0.001070,-0.022279,0.000948,0.999985,-0.005486,0.022284,0.005464,0.999737,0.022279,0.005486,-0.999737,0.042678,-0.018685,-0.025837,-0.001992,0.001833,-0.002115,23.181444,27.644230,-1.000000,-1.000000,-1.000000
482149305.317105,-0.008865,-0.014069,-1.024155,0.022215,-0.005517,-0.001017,0.999753,-0.001140,-0.022213,0.001017,0.999984,-0.005517,0.022219,0.005493,0.999738,0.022213,0.005517,-0.999738,0.102085,-0.009103,-0.028231,-0.001990,-0.005329,-0.002020,23.181444,27.644230,-1.000000,-1.000000,-1.000000
482149305.326111,-0.073166,-0.006226,-1.050461,0.022215,-0.005517,-0.001017,0.999753,-0.001140,-0.022213,0.001017,0.999984,-0.005517,0.022219,0.005493,0.999738,0.022213,0.005517,-0.999738,0.102085,-0.009103,-0.028231,-0.001990,-0.005329,-0.002020,23.181444,27.644230,-1.000000,-1.000000,-1.000000
482149305.336984,-0.083191,-0.017822,-1.014969,0.022215,-0.005530,-0.001052,0.999753,-0.001175,-0.022213,0.001052,0.999984,-0.005530,0.022219,0.005505,0.999738,0.022213,0.005530,-0.999738,0.056614,-0.014578,-0.026019,-0.003200,0.001838,-0.002178,23.182280,27.645065,-1.000000,-1.000000,-1.000000
482149305.346929,-0.012314,-0.003464,-1.046844,0.022216,-0.005633,-0.001113,0.999752,-0.001238,-0.022214,0.001113,0.999983,-0.005633,0.022220,0.005607,0.999737,0.022214,0.005633,-0.999737,-0.031079,-0.019702,-0.024417,-0.005749,0.000675,0.000055,23.182280,27.645065,-1.000000,-1.000000,-1.000000
482149305.357070,-0.077347,-0.006012,-1.027390,0.022189,-0.005668,-0.001138,0.999753,-0.001263,-0.022187,0.001138,0.999983,-0.005668,0.022193,0.005642,0.999738,0.022187,0.005668,-0.999738,-0.095353,-0.011894,-0.050723,-0.003064,-0.005345,-0.004425,23.182280,27.645065,-1.000000,-1.000000,-1.000000
482149305.367139,-0.008453,-0.014145,-1.031906,0.022189,-0.005668,-0.001138,0.999753,-0.001263,-0.022187,0.001138,0.999983,-0.005668,0.022193,0.005642,0.999738,0.022187,0.005668,-0.999738,-0.095353,-0.011894,-0.050723,-0.003064,-0.005345,-0.004425,23.182280,27.645065,-1.000000,-1.000000,-1.000000
482149305.377099,0.053650,-0.007446,-1.032166,0.022131,-0.005760,-0.001041,0.999754,-0.001168,-0.022129,0.001041,0.999983,-0.005760,0.022135,0.005736,0.999739,0.022129,0.005760,-0.999739,-0.034443,-0.009224,-0.047106,-0.007024,-0.000502,0.001179,23.182280,27.645065,-1.000000,-1.000000,-1.000000
482149305.387065,0.053650,-0.007446,-1.032166,0.022115,-0.005840,-0.001078,0.999755,-0.001207,-0.022113,0.001078,0.999982,-0.005840,0.022120,0.005814,0.999738,0.022113,0.005840,-0.999738,-0.099460,-0.011851,-0.027651,-0.012928,-0.001692,-0.001462,23.188227,27.651012,-1.000000,-1.000000,-1.000000
482149305.397713,0.144379,-0.012177,-1.020828,0.022115,-0.005840,-0.001078,0.999755,-0.001207,-0.022113,0.001078,0.999982,-0.005840,0.022120,0.005814,0.999738,0.022113,0.005840,-0.999738,-0.099460,-0.011851,-0.027651,-0.012928,-0.001692,-0.001462,23.188227,27.651012,-1.000000,-1.000000,-1.000000
482149305.406900,0.183014,-0.008774,-1.024384,0.022144,-0.006028,-0.001099,0.999754,-0.001232,-0.022142,0.001099,0.999981,-0.006028,0.022149,0.006002,0.999737,0.022142,0.006028,-0.999737,-0.030595,-0.020173,-0.032169,-0.010783,0.004308,0.003269,23.188227,27.651012,-1.000000,-1.000000,-1.000000
482149305.417118,0.086258,-0.009872,-1.017532,0.022139,-0.006068,-0.001134,0.999754,-0.001268,-0.022136,0.001134,0.999981,-0.006068,0.022144,0.006042,0.999737,0.022136,0.006068,-0.999737,0.031514,-0.013514,-0.032429,-0.004072,-0.001791,-0.008050,23.188227,27.651012,-1.000000,-1.000000,-1.000000
482149305.427098,0.112808,-0.007568,-1.016953,0.022134,-0.006156,-0.001163,0.999754,-0.001298,-0.022132,0.001162,0.999980,-0.006156,0.022139,0.006129,0.999736,0.022132,0.006156,-0.999736,0.160882,-0.014930,-0.024647,-0.000583,-0.000591,-0.005535,23.188227,27.651012,-1.000000,-1.000000,-1.000000
482149305.436969,0.122665,-0.001678,-1.032944,0.022134,-0.006156,-0.001163,0.999754,-0.001298,-0.022132,0.001162,0.999980,-0.006156,0.022139,0.006129,0.999736,0.022132,0.006156,-0.999736,0.160882,-0.014930,-0.024647,-0.000583,-0.000591,-0.005535,23.191526,27.654312,-1.000000,-1.000000,-1.000000
482149305.447077,0.077057,-0.007935,-1.010361,0.022135,-0.006209,-0.001166,0.999754,-0.001303,-0.022132,0.001166,0.999980,-0.006209,0.022140,0.006181,0.999736,0.022132,0.006209,-0.999736,0.064125,-0.016081,-0.017797,-0.004608,0.000681,0.001289,23.191526,27.654312,-1.000000,-1.000000,-1.000000
482149305.457075,-0.019424,-0.009277,-1.026810,0.022099,-0.006273,-0.001075,0.999755,-0.001213,-0.022097,0.001075,0.999980,-0.006273,0.022104,0.006247,0.999736,0.022097,0.006273,-0.999736,0.090712,-0.013841,-0.017216,-0.001252,-0.002873,0.006210,23.191526,27.654312,-1.000000,-1.000000,-1.000000
482149305.467110,-0.079910,-0.001160,-1.032486,0.022077,-0.006319,-0.001099,0.999756,-0.001239,-0.022075,0.001099,0.999979,-0.006319,0.022082,0.006293,0.999736,0.022075,0.006319,-0.999736,0.100590,-0.007997,-0.033207,-0.007762,-0.001765,-0.007067,23.191526,27.654312,-1.000000,-1.000000,-1.000000
482149305.477029,-0.075500,-0.011932,-1.027206,0.022077,-0.006319,-0.001099,0.999756,-0.001239,-0.022075,0.001099,0.999979,-0.006319,0.022082,0.006293,0.999736,0.022075,0.006319,-0.999736,0.100590,-0.007997,-0.033207,-0.007762,-0.001765,-0.007067,23.191526,27.654312,-1.000000,-1.000000,-1.000000
482149305.487129,-0.045563,0.000061,-1.048874,0.022051,-0.006408,-0.001095,0.999756,-0.001236,-0.022049,0.001095,0.999979,-0.006408,0.022056,0.006382,0.999736,0.022049,0.006408,-0.999736,-0.041473,-0.015685,-0.027073,-0.004474,-0.000534,-0.001038,23.191526,27.654312,-1.000000,-1.000000,-1.000000
482149305.497188,-0.045563,0.000061,-1.048874,0.022040,-0.006487,-0.001148,0.999756,-0.001291,-0.022038,0.001148,0.999978,-0.006487,0.022046,0.006460,0.999736,0.022038,0.006487,-0.999736,-0.101948,-0.007646,-0.032750,-0.010379,-0.001723,-0.003679,23.195084,27.657867,-1.000000,-1.000000,-1.000000
482149305.507147,-0.071167,-0.002823,-1.012497,0.022040,-0.006487,-0.001148,0.999756,-0.001291,-0.022038,0.001148,0.999978,-0.006487,0.022046,0.006460,0.999736,0.022038,0.006487,-0.999736,-0.101948,-0.007646,-0.032750,-0.010379,-0.001723,-0.003679,23.195084,27.657867,-1.000000,-1.000000,-1.000000
482149305.517043,0.035187,-0.007721,-1.036194,0.022042,-0.006587,-0.001150,0.999756,-0.001294,-0.022039,0.001150,0.999978,-0.006587,0.022047,0.006560,0.999735,0.022039,0.006587,-0.999735,-0.097540,-0.018519,-0.027471,-0.003600,-0.004067,0.004929,23.195084,27.657867,-1.000000,-1.000000,-1.000000
482149305.527060,0.041382,-0.005722,-1.040680,0.022020,-0.006612,-0.001136,0.999757,-0.001281,-0.022018,0.001136,0.999977,-0.006612,0.022026,0.006585,0.999736,0.022018,0.006612,-0.999736,-0.067581,-0.006551,-0.049138,-0.004407,-0.001738,-0.002193,23.195084,27.657867,-1.000000,-1.000000,-1.000000
482149305.537132,0.144028,-0.011902,-0.995605,0.022028,-0.006746,-0.001128,0.999757,-0.001276,-0.022025,0.001128,0.999977,-0.006746,0.022033,0.006719,0.999735,0.022025,0.006746,-0.999735,0.013161,-0.014466,-0.036459,-0.006756,0.000649,-0.003522,23.195084,27.657867,-1.000000,-1.000000,-1.000000
482149305.547065,0.194107,-0.001740,-1.026749,0.022028,-0.006746,-0.001128,0.999757,-0.001276,-0.022025,0.001128,0.999977,-0.006746,0.022033,0.006719,0.999735,0.022025,0.006746,-0.999735,0.013161,-0.014466,-0.036459,-0.006756,0.000649,-0.003522,23.200203,27.662987,-1.000000,-1.000000,-1.000000
482149305.557068,0.074265,-0.010178,-1.032822,0.022044,-0.006742,-0.001136,0.999756,-0.001284,-0.022042,0.001136,0.999977,-0.006742,0.022050,0.006716,0.999734,0.022042,0.006742,-0.999734,0.019340,-0.012464,-0.040946,0.005255,0.000608,-0.001723,23.200203,27.662987,-1.000000,-1.000000,-1.000000
482149305.567071,0.119843,-0.007324,-1.000992,0.022051,-0.006786,-0.001163,0.999756,-0.001312,-0.022048,0.001163,0.999976,-0.006786,0.022057,0.006758,0.999734,0.022048,0.006786,-0.999734,0.121979,-0.018688,0.004128,-0.002999,-0.000581,-0.005661,23.200203,27.662987,-1.000000,-1.000000,-1.000000
482149305.577148,0.123016,-0.003540,-1.022217,0.022074,-0.006839,-0.001140,0.999756,-0.001290,-0.022071,0.001140,0.999976,-0.006839,0.022080,0.006813,0.999733,0.022071,0.006839,-0.999733,0.172036,-0.008579,-0.027016,-0.003469,0.003073,0.002490,23.200203,27.662987,-1.000000,-1.000000,-1.000000
482149305.587233,0.090164,-0.010010,-1.035751,0.022074,-0.006839,-0.001140,0.999756,-0.001290,-0.022071,0.001140,0.999976,-0.006839,0.022080,0.006813,0.999733,0.022071,0.006839,-0.999733,0.172036,-0.008579,-0.027016,-0.003469,0.003073,0.002490,23.200203,27.662987,-1.000000,-1.000000,-1.000000
482149305.597168,0.025772,-0.004547,-1.005676,0.022103,-0.006874,-0.001108,0.999755,-0.001259,-0.022100,0.001107,0.999976,-0.006874,0.022108,0.006848,0.999732,0.022100,0.006874,-0.999732,0.097742,-0.014198,-0.001260,-0.001121,0.004267,0.003772,23.200277,27.663063,-1.000000,-1.000000,-1.000000
482149305.606390,0.025772,-0.004547,-1.005676,0.022125,-0.006916,-0.001100,0.999754,-0.001253,-0.022123,0.001100,0.999976,-0.006916,0.022131,0.006890,0.999731,0.022123,0.006916,-0.999731,0.100893,-0.010456,-0.022485,-0.004476,0.003046,-0.001086,23.200277,27.663063,-1.000000,-1.000000,-1.000000
482149305.617123,-0.038406,-0.004669,-1.037720,0.022125,-0.006916,-0.001100,0.999754,-0.001253,-0.022123,0.001100,0.999976,-0.006916,0.022131,0.006890,0.999731,0.022123,0.006916,-0.999731,0.100893,-0.010456,-0.022485,-0.004476,0.003046,-0.001086,23.200277,27.663063,-1.000000,-1.000000,-1.000000
482149305.627036,-0.044495,-0.012650,-1.037979,0.022161,-0.006941,-0.000998,0.999754,-0.001151,-0.022159,0.000998,0.999975,-0.006941,0.022166,0.006918,0.999730,0.022159,0.006941,-0.999730,0.068006,-0.016951,-0.036021,-0.007830,0.004398,0.015170,23.200277,27.663063,-1.000000,-1.000000,-1.000000
482149305.637134,0.007324,0.005920,-1.023438,0.022145,-0.006988,-0.001001,0.999754,-0.001156,-0.022143,0.001001,0.999975,-0.006988,0.022150,0.006965,0.999730,0.022143,0.006988,-0.999730,0.003629,-0.011536,-0.005946,-0.000583,-0.002979,-0.005503,23.200277,27.663063,-1.000000,-1.000000,-1.000000
482149305.647092,-0.061234,-0.006683,-1.015732,0.022152,-0.007023,-0.000974,0.999754,-0.001129,-0.022150,0.000974,0.999975,-0.007023,0.022157,0.006999,0.999730,0.022150,0.007023,-0.999730,-0.066644,-0.019672,-0.038249,0.001161,0.004278,0.006240,23.205515,27.668301,-1.000000,-1.000000,-1.000000
482149305.657109,0.011856,-0.007858,-1.022995,0.022152,-0.007023,-0.000974,0.999754,-0.001129,-0.022150,0.000974,0.999975,-0.007023,0.022157,0.006999,0.999730,0.022150,0.007023,-0.999730,-0.066644,-0.019672,-0.038249,0.001161,0.004278,0.006240,23.205515,27.668301,-1.000000,-1.000000,-1.000000
482149305.667072,0.024628,-0.004913,-1.039749,0.022126,-0.007043,-0.000949,0.999755,-0.001105,-0.022123,0.000949,0.999975,-0.007043,0.022130,0.007020,0.999730,0.022123,0.007043,-0.999730,-0.014799,-0.001122,-0.023707,-0.004674,-0.006471,0.002555,23.205515,27.668301,-1.000000,-1.000000,-1.000000
482149305.677076,0.123444,-0.009384,-1.014328,0.022100,-0.007127,-0.000923,0.999755,-0.001081,-0.022098,0.000923,0.999974,-0.007127,0.022105,0.007105,0.999730,0.022098,0.007127,-0.999730,-0.083331,-0.013810,-0.016001,-0.000719,0.003010,-0.003240,23.205515,27.668301,-1.000000,-1.000000,-1.000000
482149305.687525,0.183472,-0.005676,-1.013718,0.022100,-0.007129,-0.000952,0.999755,-0.001110,-0.022098,0.000952,0.999974,-0.007129,0.022105,0.007106,0.999730,0.022098,0.007129,-0.999730,-0.010241,-0.014987,-0.023265,0.000758,0.001769,-0.007846,23.205515,27.668301,-1.000000,-1.000000,-1.000000
482149305.697052,0.044556,-0.012680,-1.048172,0.022100,-0.007129,-0.000952,0.999755,-0.001110,-0.022098,0.000952,0.999974,-0.007129,0.022105,0.007106,0.999730,0.022098,0.007129,-0.999730,-0.010241,-0.014987,-0.023265,0.000758,0.001769,-0.007846,23.209873,27.672657,-1.000000,-1.000000,-1.000000
482149305.707179,0.091965,-0.009964,-1.032745,0.022111,-0.007110,-0.001005,0.999755,-0.001162,-0.022109,0.001005,0.999974,-0.007110,0.022116,0.007086,0.999730,0.022109,0.007110,-0.999730,0.101335,-0.016494,-0.014598,-0.003335,0.003052,0.000148,23.209873,27.672657,-1.000000,-1.000000,-1.000000
482149305.716403,0.091965,-0.009964,-1.032745,0.022111,-0.007145,-0.001051,0.999755,-0.001209,-0.022108,0.001051,0.999974,-0.007144,0.022116,0.007119,0.999730,0.022108,0.007144,-0.999730,0.161363,-0.012821,-0.013988,-0.001791,-0.001780,-0.005582,23.209873,27.672657,-1.000000,-1.000000,-1.000000
482149305.727079,0.116119,-0.005417,-1.004150,0.022111,-0.007145,-0.001051,0.999755,-0.001209,-0.022108,0.001051,0.999974,-0.007144,0.022116,0.007119,0.999730,0.022108,0.007144,-0.999730,0.161363,-0.012821,-0.013988,-0.001791,-0.001780,-0.005582,23.209873,27.672657,-1.000000,-1.000000,-1.000000
482149305.737099,0.110641,-0.003769,-1.029755,0.022090,-0.007199,-0.001073,0.999755,-0.001231,-0.022087,0.001073,0.999974,-0.007199,0.022096,0.007174,0.999730,0.022087,0.007199,-0.999730,0.069877,-0.017163,-0.033015,-0.002193,-0.001717,0.001446,23.209873,27.672657,-1.000000,-1.000000,-1.000000
482149305.747268,0.057938,-0.005280,-1.019302,0.022111,-0.007267,-0.001131,0.999755,-0.001291,-0.022109,0.001131,0.999973,-0.007267,0.022118,0.007240,0.999729,0.022109,0.007267,-0.999729,0.069856,-0.017231,-0.033016,-0.010248,0.004223,-0.006101,23.214418,27.677204,-1.000000,-1.000000,-1.000000
482149305.757079,-0.044434,-0.006699,-1.036102,0.022117,-0.007335,-0.001229,0.999754,-0.001391,-0.022114,0.001229,0.999972,-0.007335,0.022124,0.007306,0.999729,0.022114,0.007335,-0.999729,0.088527,-0.011104,-0.030026,-0.002798,-0.001807,-0.009158,23.214418,27.677204,-1.000000,-1.000000,-1.000000
482149305.767003,-0.030014,-0.013412,-1.033203,0.022117,-0.007335,-0.001229,0.999754,-0.001391,-0.022114,0.001229,0.999972,-0.007335,0.022124,0.007306,0.999729,0.022114,0.007335,-0.999729,0.088527,-0.011104,-0.030026,-0.002798,-0.001807,-0.009158,23.214418,27.677204,-1.000000,-1.000000,-1.000000
482149305.777083,0.011230,0.003784,-1.042618,0.022079,-0.007393,-0.001232,0.999755,-0.001395,-0.022076,0.001232,0.999972,-0.007393,0.022086,0.007364,0.999729,0.022076,0.007393,-0.999729,0.035861,-0.012673,-0.019573,-0.004541,-0.002911,0.000165,23.214418,27.677204,-1.000000,-1.000000,-1.000000
482149305.787067,-0.055511,-0.012527,-1.015320,0.022124,-0.007504,-0.001262,0.999754,-0.001427,-0.022121,0.001262,0.999971,-0.007503,0.022131,0.007474,0.999727,0.022121,0.007503,-0.999727,-0.052135,-0.020916,-0.033476,-0.007899,0.004224,-0.004804,23.214418,27.677204,-1.000000,-1.000000,-1.000000
482149305.797036,0.028168,0.000183,-1.029907,0.022124,-0.007504,-0.001262,0.999754,-0.001427,-0.022121,0.001262,0.999971,-0.007503,0.022131,0.007474,0.999727,0.022121,0.007503,-0.999727,-0.052135,-0.020916,-0.033476,-0.007899,0.004224,-0.004804,23.214418,27.677204,-1.000000,-1.000000,-1.000000
482149305.807165,0.036392,-0.004761,-1.039047,0.022140,-0.007566,-0.001314,0.999754,-0.001482,-0.022138,0.001314,0.999970,-0.007566,0.022148,0.007535,0.999726,0.022138,0.007566,-0.999726,-0.052152,-0.020978,-0.033477,-0.005348,-0.000582,-0.006957,23.218765,27.681549,-1.000000,-1.000000,-1.000000
482149305.816993,0.126282,-0.009323,-1.012222,0.022124,-0.007631,-0.001347,0.999754,-0.001516,-0.022122,0.001347,0.999970,-0.007631,0.022133,0.007599,0.999726,0.022122,0.007631,-0.999726,-0.077633,-0.020158,-0.015594,-0.003200,-0.000550,-0.002147,23.218765,27.681549,-1.000000,-1.000000,-1.000000
482149305.827167,0.126282,-0.009323,-1.012222,0.022119,-0.007677,-0.001383,0.999754,-0.001552,-0.022116,0.001383,0.999970,-0.007677,0.022128,0.007644,0.999726,0.022116,0.007677,-0.999726,0.006051,-0.007494,-0.030181,-0.000583,-0.002979,-0.005503,23.218765,27.681549,-1.000000,-1.000000,-1.000000
482149305.836974,0.146057,0.003601,-1.026764,0.022119,-0.007677,-0.001383,0.999754,-0.001552,-0.022116,0.001383,0.999970,-0.007677,0.022128,0.007644,0.999726,0.022116,0.007677,-0.999726,0.006051,-0.007494,-0.030181,-0.000583,-0.002979,-0.005503,23.218765,27.681549,-1.000000,-1.000000,-1.000000
482149305.847033,0.076477,-0.006241,-1.035645,0.022088,-0.007774,-0.001416,0.999755,-0.001587,-0.022086,0.001416,0.999969,-0.007774,0.022097,0.007741,0.999726,0.022086,0.007774,-0.999726,0.014307,-0.012535,-0.039321,-0.007914,0.001551,-0.002379,23.218765,27.681549,-1.000000,-1.000000,-1.000000
482149305.857106,0.123184,-0.005554,-1.026062,0.022119,-0.007898,-0.001416,0.999754,-0.001591,-0.022117,0.001416,0.999968,-0.007898,0.022129,0.007865,0.999724,0.022117,0.007898,-0.999724,0.104165,-0.017221,-0.012498,-0.011672,0.003975,-0.000257,23.223507,27.686291,-1.000000,-1.000000,-1.000000
482149305.867074,0.121445,0.001541,-1.008789,0.022169,-0.007983,-0.001466,0.999753,-0.001643,-0.022166,0.001466,0.999967,-0.007983,0.022179,0.007948,0.999722,0.022166,0.007983,-0.999722,0.054311,-0.014224,-0.035922,-0.003149,0.000347,-0.000940,23.223507,27.686291,-1.000000,-1.000000,-1.000000
482149305.877089,0.095840,-0.013672,-1.014984,0.022169,-0.007983,-0.001466,0.999753,-0.001643,-0.022166,0.001466,0.999967,-0.007983,0.022179,0.007948,0.999722,0.022166,0.007983,-0.999722,0.054311,-0.014224,-0.035922,-0.003149,0.000347,-0.000940,23.223507,27.686291,-1.000000,-1.000000,-1.000000
482149305.887068,-0.010300,-0.001282,-1.028305,0.022128,-0.007995,-0.001484,0.999754,-0.001660,-0.022125,0.001484,0.999967,-0.007995,0.022138,0.007960,0.999723,0.022125,0.007995,-0.999723,0.101059,-0.013549,-0.026339,0.001818,-0.004468,-0.002968,23.223507,27.686291,-1.000000,-1.000000,-1.000000
482149305.897060,-0.056458,-0.002823,-1.030075,0.022108,-0.008072,-0.001452,0.999754,-0.001630,-0.022105,0.001451,0.999966,-0.008071,0.022117,0.008037,0.999723,0.022105,0.008071,-0.999723,0.099340,-0.006530,-0.009066,-0.006840,0.001567,0.000027,23.223507,27.686291,-1.000000,-1.000000,-1.000000
482149305.907279,-0.051727,-0.003525,-1.008408,0.022108,-0.008072,-0.001452,0.999754,-0.001630,-0.022105,0.001451,0.999966,-0.008071,0.022117,0.008037,0.999723,0.022105,0.008071,-0.999723,0.099340,-0.006530,-0.009066,-0.006840,0.001567,0.000027,23.226763,27.689548,-1.000000,-1.000000,-1.000000
482149305.917105,0.016006,-0.004059,-1.043198,0.022116,-0.008111,-0.001471,0.999754,-0.001650,-0.022114,0.001471,0.999966,-0.008111,0.022126,0.008077,0.999723,0.022114,0.008111,-0.999723,0.073727,-0.021783,-0.015262,-0.002814,-0.000899,-0.006781,23.226763,27.689548,-1.000000,-1.000000,-1.000000
482149305.926639,0.016006,-0.004059,-1.043198,0.022099,-0.008210,-0.001596,0.999754,-0.001777,-0.022096,0.001595,0.999965,-0.008210,0.022110,0.008173,0.999722,0.022096,0.008210,-0.999722,-0.078554,-0.011033,-0.030353,-0.009053,-0.004422,-0.003534,23.226763,27.689548,-1.000000,-1.000000,-1.000000
482149305.937134,-0.058578,-0.002823,-1.027267,0.022047,-0.008283,-0.001631,0.999755,-0.001813,-0.022044,0.001631,0.999964,-0.008283,0.022058,0.008245,0.999723,0.022044,0.008283,-0.999723,-0.073771,-0.011808,-0.008685,-0.007844,-0.006815,-0.003439,23.226763,27.689548,-1.000000,-1.000000,-1.000000
482149305.947053,0.051971,-0.004547,-1.036179,0.022047,-0.008283,-0.001631,0.999755,-0.001813,-0.022044,0.001631,0.999964,-0.008283,0.022058,0.008245,0.999723,0.022044,0.008283,-0.999723,-0.073771,-0.011808,-0.008685,-0.007844,-0.006815,-0.003439,23.226763,27.689548,-1.000000,-1.000000,-1.000000
482149305.957091,0.110367,-0.010666,-1.027740,0.022009,-0.008319,-0.001657,0.999756,-0.001839,-0.022006,0.001657,0.999964,-0.008318,0.022021,0.008280,0.999723,0.022006,0.008318,-0.999723,-0.006000,-0.012377,-0.043474,-0.000667,0.000327,-0.001986,23.234705,27.697491,-1.000000,-1.000000,-1.000000
482149305.967229,0.189270,-0.013550,-1.015213,0.022000,-0.008291,-0.001706,0.999756,-0.001888,-0.021997,0.001706,0.999964,-0.008291,0.022012,0.008251,0.999724,0.021997,0.008291,-0.999724,-0.080576,-0.011113,-0.027544,0.002084,-0.000930,-0.007701,23.234705,27.697491,-1.000000,-1.000000,-1.000000
482149305.977027,0.165802,-0.005310,-1.050720,0.022049,-0.008324,-0.001775,0.999755,-0.001959,-0.022046,0.001775,0.999964,-0.008324,0.022062,0.008283,0.999722,0.022046,0.008324,-0.999722,0.088321,-0.018990,-0.028018,0.003212,0.001445,-0.005312,23.234705,27.697491,-1.000000,-1.000000,-1.000000
482149305.986101,0.090149,-0.011795,-1.018250,0.022049,-0.008324,-0.001775,0.999755,-0.001959,-0.022046,0.001775,0.999964,-0.008324,0.022062,0.008283,0.999722,0.022046,0.008324,-0.999722,0.088321,-0.018990,-0.028018,0.003212,0.001445,-0.005312,23.234705,27.697491,-1.000000,-1.000000,-1.000000
482149305.997155,0.119263,-0.001434,-1.005966,0.022030,-0.008376,-0.001751,0.999756,-0.001935,-0.022028,0.001751,0.999963,-0.008376,0.022043,0.008335,0.999722,0.022028,0.008376,-0.999722,0.167242,-0.021926,-0.015491,-0.005779,-0.000822,0.003650,23.234705,27.697491,-1.000000,-1.000000,-1.000000
482149306.006956,0.129532,-0.003387,-1.015030,0.022048,-0.008446,-0.001730,0.999755,-0.001916,-0.022045,0.001730,0.999963,-0.008446,0.022060,0.008405,0.999721,0.022045,0.008446,-0.999721,0.143757,-0.013756,-0.050999,-0.000679,0.000309,-0.000799,23.234705,27.697491,-1.000000,-1.000000,-1.000000
482149306.017171,0.084656,-0.006973,-1.023514,0.022048,-0.008446,-0.001730,0.999755,-0.001916,-0.022045,0.001730,0.999963,-0.008446,0.022060,0.008405,0.999721,0.022045,0.008446,-0.999721,0.143757,-0.013756,-0.050999,-0.000679,0.000309,-0.000799,23.239973,27.702759,-1.000000,-1.000000,-1.000000
482149306.027023,-0.026047,-0.003448,-1.029221,0.022018,-0.008419,-0.001725,0.999756,-0.001910,-0.022015,0.001725,0.999963,-0.008419,0.022030,0.008379,0.999722,0.022015,0.008419,-0.999722,0.068134,-0.020214,-0.018527,0.003079,-0.002115,-0.002922,23.239973,27.702759,-1.000000,-1.000000,-1.000000
482149306.037008,-0.026047,-0.003448,-1.029221,0.022006,-0.008464,-0.001767,0.999756,-0.001953,-0.022004,0.001767,0.999963,-0.008464,0.022020,0.008423,0.999722,0.022004,0.008464,-0.999722,0.107528,-0.011852,-0.015308,-0.000544,-0.004487,-0.003078,23.239973,27.702759,-1.000000,-1.000000,-1.000000
482149306.047105,-0.069534,-0.007904,-1.026901,0.021976,-0.008438,-0.001757,0.999757,-0.001942,-0.021974,0.001757,0.999963,-0.008438,0.021989,0.008397,0.999723,0.021974,0.008438,-0.999723,0.062682,-0.015411,-0.023791,0.000261,-0.003235,0.003996,23.239973,27.702759,-1.000000,-1.000000,-1.000000
482149306.057138,-0.038971,-0.000565,-1.025177,0.021976,-0.008438,-0.001757,0.999757,-0.001942,-0.021974,0.001757,0.999963,-0.008438,0.021989,0.008397,0.999723,0.021974,0.008438,-0.999723,0.062682,-0.015411,-0.023791,0.000261,-0.003235,0.003996,23.239973,27.702759,-1.000000,-1.000000,-1.000000
482149306.067069,0.027847,0.005219,-1.021240,0.021968,-0.008537,-0.001676,0.999757,-0.001863,-0.021965,0.001676,0.999962,-0.008537,0.021980,0.008498,0.999722,0.021965,0.008537,-0.999722,-0.048012,-0.011986,-0.029498,-0.006986,-0.002011,0.003603,23.248903,27.711689,-1.000000,-1.000000,-1.000000
482149306.077078,-0.060974,-0.003952,-1.038086,0.021960,-0.008595,-0.001658,0.999757,-0.001846,-0.021957,0.001658,0.999962,-0.008595,0.021972,0.008556,0.999722,0.021957,0.008595,-0.999722,-0.091492,-0.016499,-0.027179,-0.011817,-0.001990,0.003352,23.248903,27.711689,-1.000000,-1.000000,-1.000000
482149306.087137,0.031616,-0.008636,-1.024719,0.021907,-0.008693,-0.001615,0.999758,-0.001805,-0.021904,0.001615,0.999961,-0.008693,0.021919,0.008655,0.999722,0.021904,0.008693,-0.999722,0.005943,-0.003474,-0.021518,-0.003428,-0.006790,0.005027,23.248903,27.711689,-1.000000,-1.000000,-1.000000
482149306.097124,0.015793,-0.004028,-1.039322,0.021907,-0.008693,-0.001615,0.999758,-0.001805,-0.021904,0.001615,0.999961,-0.008693,0.021919,0.008655,0.999722,0.021904,0.008693,-0.999722,0.005943,-0.003474,-0.021518,-0.003428,-0.006790,0.005027,23.248903,27.711689,-1.000000,-1.000000,-1.000000
482149306.106334,0.141479,-0.009033,-1.001602,0.021883,-0.008718,-0.001579,0.999759,-0.001769,-0.021880,0.001579,0.999961,-0.008717,0.021895,0.008681,0.999723,0.021880,0.008717,-0.999723,-0.082854,-0.012669,-0.038363,-0.002289,-0.000816,0.006181,23.248903,27.711689,-1.000000,-1.000000,-1.000000
482149306.117143,0.130890,0.005493,-1.017990,0.021939,-0.008766,-0.001525,0.999758,-0.001717,-0.021936,0.001525,0.999960,-0.008766,0.021951,0.008731,0.999721,0.021936,0.008766,-0.999721,0.009680,-0.017403,-0.024998,0.000461,-0.000880,0.000451,23.257965,27.720749,-1.000000,-1.000000,-1.000000
