Timestamp,Accel_X,Accel_Y,Accel_Z,Roll,Pitch,Yaw,RM11,RM12,RM13,RM21,RM22,RM23,RM31,RM32,RM33,GravAcc_X,GravAcc_Y,GravAcc_Z,UserAcc_X,UserAcc_Y,UserAcc_Z,RotRate_X,RotRate_Y,RotRate_Z,MagHeading,TrueHeading,HeadingAccuracy,Course,Speed
482149736.759192,0.070847,-0.002182,-1.020508,0.037641,0.006773,-0.000877,0.999291,-0.000621,-0.037632,0.000877,0.999977,0.006772,0.037627,-0.006801,0.999269,0.037632,-0.006772,-0.999269,0.008663,0.002302,-0.022689,-0.003025,0.001014,-0.000398,22.602474,27.065258,-1.000000,-1.000000,-1.000000
482149736.768651,0.057770,-0.005249,-1.016388,0.037641,0.006773,-0.000877,0.999291,-0.000621,-0.037632,0.000877,0.999977,0.006772,0.037627,-0.006801,0.999269,0.037632,-0.006772,-0.999269,0.008663,0.002302,-0.022689,-0.003025,0.001014,-0.000398,22.602474,27.065258,-1.000000,-1.000000,-1.000000
482149736.778049,0.057770,-0.005249,-1.016388,0.037641,0.006773,-0.000877,0.999291,-0.000621,-0.037632,0.000877,0.999977,0.006772,0.037627,-0.006801,0.999269,0.037632,-0.006772,-0.999269,0.008663,0.002302,-0.022689,-0.003025,0.001014,-0.000398,22.602474,27.065258,-1.000000,-1.000000,-1.000000
482149736.788803,-0.002853,-0.007050,-1.022919,0.037641,0.006773,-0.000877,0.999291,-0.000621,-0.037632,0.000877,0.999977,0.006772,0.037627,-0.006801,0.999269,0.037632,-0.006772,-0.999269,0.008663,0.002302,-0.022689,-0.003025,0.001014,-0.000398,22.602474,27.065258,-1.000000,-1.000000,-1.000000
482149736.798592,-0.044769,-0.009628,-1.031235,0.037641,0.006773,-0.000877,0.999291,-0.000621,-0.037632,0.000877,0.999977,0.006772,0.037627,-0.006801,0.999269,0.037632,-0.006772,-0.999269,0.008663,0.002302,-0.022689,-0.003025,0.001014,-0.000398,22.602474,27.065258,-1.000000,-1.000000,-1.000000
482149736.808059,0.034271,-0.005554,-1.017792,0.037641,0.006773,-0.000877,0.999291,-0.000621,-0.037632,0.000877,0.999977,0.006772,0.037627,-0.006801,0.999269,0.037632,-0.006772,-0.999269,0.008663,0.002302,-0.022689,-0.003025,0.001014,-0.000398,22.602474,27.065258,-1.000000,-1.000000,-1.000000
482149736.818768,0.006592,-0.011032,-1.035889,0.037641,0.006773,-0.000877,0.999291,-0.000621,-0.037632,0.000877,0.999977,0.006772,0.037627,-0.006801,0.999269,0.037632,-0.006772,-0.999269,0.008663,0.002302,-0.022689,-0.003025,0.001014,-0.000398,22.602474,27.065258,-1.000000,-1.000000,-1.000000
482149736.828172,-0.041641,-0.006638,-1.033005,0.037641,0.006773,-0.000877,0.999291,-0.000621,-0.037632,0.000877,0.999977,0.006772,0.037627,-0.006801,0.999269,0.037632,-0.006772,-0.999269,0.008663,0.002302,-0.022689,-0.003025,0.001014,-0.000398,22.602474,27.065258,-1.000000,-1.000000,-1.000000
482149736.838176,0.041077,-0.011414,-1.019257,0.037641,0.006773,-0.000877,0.999291,-0.000621,-0.037632,0.000877,0.999977,0.006772,0.037627,-0.006801,0.999269,0.037632,-0.006772,-0.999269,0.008663,0.002302,-0.022689,-0.003025,0.001014,-0.000398,22.602474,27.065258,-1.000000,-1.000000,-1.000000
482149736.848578,0.093262,-0.003845,-1.017197,0.037641,0.006773,-0.000877,0.999291,-0.000621,-0.037632,0.000877,0.999977,0.006772,0.037627,-0.006801,0.999269,0.037632,-0.006772,-0.999269,0.008663,0.002302,-0.022689,-0.003025,0.001014,-0.000398,22.602474,27.065258,-1.000000,-1.000000,-1.000000
482149736.857768,0.042770,-0.008377,-1.012405,0.037641,0.006773,-0.000877,0.999291,-0.000621,-0.037632,0.000877,0.999977,0.006772,0.037627,-0.006801,0.999269,0.037632,-0.006772,-0.999269,0.008663,0.002302,-0.022689,-0.003025,0.001014,-0.000398,22.602474,27.065258,-1.000000,-1.000000,-1.000000
482149736.869481,0.056351,-0.008377,-1.028091,0.037641,0.006773,-0.000877,0.999291,-0.000621,-0.037632,0.000877,0.999977,0.006772,0.037627,-0.006801,0.999269,0.037632,-0.006772,-0.999269,0.008663,0.002302,-0.022689,-0.003025,0.001014,-0.000398,22.602474,27.065258,-1.000000,-1.000000,-1.000000
482149736.878799,-0.002289,-0.010941,-1.017014,0.037641,0.006773,-0.000877,0.999291,-0.000621,-0.037632,0.000877,0.999977,0.006772,0.037627,-0.006801,0.999269,0.037632,-0.006772,-0.999269,0.008663,0.002302,-0.022689,-0.003025,0.001014,-0.000398,22.602474,27.065258,-1.000000,-1.000000,-1.000000
482149736.888689,-0.035797,-0.010330,-1.015137,0.037641,0.006773,-0.000877,0.999291,-0.000621,-0.037632,0.000877,0.999977,0.006772,0.037627,-0.006801,0.999269,0.037632,-0.006772,-0.999269,0.008663,0.002302,-0.022689,-0.003025,0.001014,-0.000398,22.602474,27.065258,-1.000000,-1.000000,-1.000000
482149736.898143,-0.035797,-0.010330,-1.015137,0.037641,0.006773,-0.000877,0.999291,-0.000621,-0.037632,0.000877,0.999977,0.006772,0.037627,-0.006801,0.999269,0.037632,-0.006772,-0.999269,0.008663,0.002302,-0.022689,-0.003025,0.001014,-0.000398,22.602474,27.065258,-1.000000,-1.000000,-1.000000
482149736.908703,0.039734,-0.001617,-1.026260,0.037641,0.006773,-0.000877,0.999291,-0.000621,-0.037632,0.000877,0.999977,0.006772,0.037627,-0.006801,0.999269,0.037632,-0.006772,-0.999269,0.008663,0.002302,-0.022689,-0.003025,0.001014,-0.000398,22.602474,27.065258,-1.000000,-1.000000,-1.000000
482149736.918839,-0.005219,-0.007996,-1.016251,0.037641,0.006773,-0.000877,0.999291,-0.000621,-0.037632,0.000877,0.999977,0.006772,0.037627,-0.006801,0.999269,0.037632,-0.006772,-0.999269,0.008663,0.002302,-0.022689,-0.003025,0.001014,-0.000398,22.602474,27.065258,-1.000000,-1.000000,-1.000000
482149736.928349,-0.003983,-0.012985,-1.022903,0.037641,0.006773,-0.000877,0.999291,-0.000621,-0.037632,0.000877,0.999977,0.006772,0.037627,-0.006801,0.999269,0.037632,-0.006772,-0.999269,0.008663,0.002302,-0.022689,-0.003025,0.001014,-0.000398,22.602474,27.065258,-1.000000,-1.000000,-1.000000
482149736.938624,0.104553,-0.003815,-1.026230,0.037641,0.006773,-0.000877,0.999291,-0.000621,-0.037632,0.000877,0.999977,0.006772,0.037627,-0.006801,0.999269,0.037632,-0.006772,-0.999269,0.008663,0.002302,-0.022689,-0.003025,0.001014,-0.000398,22.602474,27.065258,-1.000000,-1.000000,-1.000000
482149736.948643,0.114563,-0.004517,-1.011047,0.037641,0.006773,-0.000877,0.999291,-0.000621,-0.037632,0.000877,0.999977,0.006772,0.037627,-0.006801,0.999269,0.037632,-0.006772,-0.999269,0.008663,0.002302,-0.022689,-0.003025,0.001014,-0.000398,22.602474,27.065258,-1.000000,-1.000000,-1.000000
482149736.958580,0.050797,-0.012268,-1.017685,0.037641,0.006773,-0.000877,0.999291,-0.000621,-0.037632,0.000877,0.999977,0.006772,0.037627,-0.006801,0.999269,0.037632,-0.006772,-0.999269,0.008663,0.002302,-0.022689,-0.003025,0.001014,-0.000398,22.602474,27.065258,-1.000000,-1.000000,-1.000000
482149736.968576,0.093765,-0.003952,-1.026871,0.037641,0.006773,-0.000877,0.999291,-0.000621,-0.037632,0.000877,0.999977,0.006772,0.037627,-0.006801,0.999269,0.037632,-0.006772,-0.999269,0.008663,0.002302,-0.022689,-0.003025,0.001014,-0.000398,22.602474,27.065258,-1.000000,-1.000000,-1.000000
482149736.978636,0.060181,-0.006317,-1.024979,0.037641,0.006773,-0.000877,0.999291,-0.000621,-0.037632,0.000877,0.999977,0.006772,0.037627,-0.006801,0.999269,0.037632,-0.006772,-0.999269,0.008663,0.002302,-0.022689,-0.003025,0.001014,-0.000398,22.602474,27.065258,-1.000000,-1.000000,-1.000000
482149736.988600,-0.001160,-0.001007,-1.015137,0.037641,0.006773,-0.000877,0.999291,-0.000621,-0.037632,0.000877,0.999977,0.006772,0.037627,-0.006801,0.999269,0.037632,-0.006772,-0.999269,0.008663,0.002302,-0.022689,-0.003025,0.001014,-0.000398,22.602474,27.065258,-1.000000,-1.000000,-1.000000
482149736.998559,-0.002731,-0.004288,-1.042374,0.037641,0.006773,-0.000877,0.999291,-0.000621,-0.037632,0.000877,0.999977,0.006772,0.037627,-0.006801,0.999269,0.037632,-0.006772,-0.999269,0.008663,0.002302,-0.022689,-0.003025,0.001014,-0.000398,22.602474,27.065258,-1.000000,-1.000000,-1.000000
482149737.008632,0.009430,-0.008789,-1.014404,0.037641,0.006773,-0.000877,0.999291,-0.000621,-0.037632,0.000877,0.999977,0.006772,0.037627,-0.006801,0.999269,0.037632,-0.006772,-0.999269,0.008663,0.002302,-0.022689,-0.003025,0.001014,-0.000398,22.602474,27.065258,-1.000000,-1.000000,-1.000000
482149737.017968,0.009430,-0.008789,-1.014404,0.037641,0.006773,-0.000877,0.999291,-0.000621,-0.037632,0.000877,0.999977,0.006772,0.037627,-0.006801,0.999269,0.037632,-0.006772,-0.999269,0.008663,0.002302,-0.022689,-0.003025,0.001014,-0.000398,22.602474,27.065258,-1.000000,-1.000000,-1.000000
482149737.028603,-0.023849,-0.002258,-1.014526,0.037641,0.006773,-0.000877,0.999291,-0.000621,-0.037632,0.000877,0.999977,0.006772,0.037627,-0.006801,0.999269,0.037632,-0.006772,-0.999269,0.008663,0.002302,-0.022689,-0.003025,0.001014,-0.000398,22.602474,27.065258,-1.000000,-1.000000,-1.000000
482149737.038684,0.025055,-0.005585,-1.010574,0.037641,0.006773,-0.000877,0.999291,-0.000621,-0.037632,0.000877,0.999977,0.006772,0.037627,-0.006801,0.999269,0.037632,-0.006772,-0.999269,0.008663,0.002302,-0.022689,-0.003025,0.001014,-0.000398,22.602474,27.065258,-1.000000,-1.000000,-1.000000
482149737.048631,0.027176,-0.004410,-0.994919,0.037641,0.006773,-0.000877,0.999291,-0.000621,-0.037632,0.000877,0.999977,0.006772,0.037627,-0.006801,0.999269,0.037632,-0.006772,-0.999269,0.008663,0.002302,-0.022689,-0.003025,0.001014,-0.000398,22.602474,27.065258,-1.000000,-1.000000,-1.000000
482149737.058586,0.047653,-0.010681,-1.049957,0.037641,0.006773,-0.000877,0.999291,-0.000621,-0.037632,0.000877,0.999977,0.006772,0.037627,-0.006801,0.999269,0.037632,-0.006772,-0.999269,0.008663,0.002302,-0.022689,-0.003025,0.001014,-0.000398,22.602474,27.065258,-1.000000,-1.000000,-1.000000
482149737.068623,0.071121,-0.010178,-1.029129,0.037641,0.006773,-0.000877,0.999291,-0.000621,-0.037632,0.000877,0.999977,0.006772,0.037627,-0.006801,0.999269,0.037632,-0.006772,-0.999269,0.008663,0.002302,-0.022689,-0.003025,0.001014,-0.000398,22.602474,27.065258,-1.000000,-1.000000,-1.000000
482149737.078594,0.056580,-0.010193,-1.014435,0.037641,0.006773,-0.000877,0.999291,-0.000621,-0.037632,0.000877,0.999977,0.006772,0.037627,-0.006801,0.999269,0.037632,-0.006772,-0.999269,0.008663,0.002302,-0.022689,-0.003025,0.001014,-0.000398,22.602474,27.065258,-1.000000,-1.000000,-1.000000
482149737.088708,0.026047,-0.007965,-1.049347,0.037641,0.006773,-0.000877,0.999291,-0.000621,-0.037632,0.000877,0.999977,0.006772,0.037627,-0.006801,0.999269,0.037632,-0.006772,-0.999269,0.008663,0.002302,-0.022689,-0.003025,0.001014,-0.000398,22.602474,27.065258,-1.000000,-1.000000,-1.000000
482149737.098579,0.034637,-0.011581,-1.027420,0.037641,0.006773,-0.000877,0.999291,-0.000621,-0.037632,0.000877,0.999977,0.006772,0.037627,-0.006801,0.999269,0.037632,-0.006772,-0.999269,0.008663,0.002302,-0.022689,-0.003025,0.001014,-0.000398,22.602474,27.065258,-1.000000,-1.000000,-1.000000
482149737.108253,0.021255,-0.010651,-1.015610,0.037641,0.006773,-0.000877,0.999291,-0.000621,-0.037632,0.000877,0.999977,0.006772,0.037627,-0.006801,0.999269,0.037632,-0.006772,-0.999269,0.008663,0.002302,-0.022689,-0.003025,0.001014,-0.000398,22.602474,27.065258,-1.000000,-1.000000,-1.000000
482149737.118567,-0.001724,-0.007263,-1.044220,0.037641,0.006773,-0.000877,0.999291,-0.000621,-0.037632,0.000877,0.999977,0.006772,0.037627,-0.006801,0.999269,0.037632,-0.006772,-0.999269,0.008663,0.002302,-0.022689,-0.003025,0.001014,-0.000398,22.602474,27.065258,-1.000000,-1.000000,-1.000000
482149737.128194,0.047226,-0.013397,-1.024704,0.037641,0.006773,-0.000877,0.999291,-0.000621,-0.037632,0.000877,0.999977,0.006772,0.037627,-0.006801,0.999269,0.037632,-0.006772,-0.999269,0.008663,0.002302,-0.022689,-0.003025,0.001014,-0.000398,22.602474,27.065258,-1.000000,-1.000000,-1.000000
482149737.138977,0.109222,-0.006485,-1.004562,0.037641,0.006773,-0.000877,0.999291,-0.000621,-0.037632,0.000877,0.999977,0.006772,0.037627,-0.006801,0.999269,0.037632,-0.006772,-0.999269,0.008663,0.002302,-0.022689,-0.003025,0.001014,-0.000398,22.602474,27.065258,-1.000000,-1.000000,-1.000000
482149737.148621,0.109222,-0.006485,-1.004562,0.037641,0.006773,-0.000877,0.999291,-0.000621,-0.037632,0.000877,0.999977,0.006772,0.037627,-0.006801,0.999269,0.037632,-0.006772,-0.999269,0.008663,0.002302,-0.022689,-0.003025,0.001014,-0.000398,22.602474,27.065258,-1.000000,-1.000000,-1.000000
482149737.158580,0.041122,-0.007645,-1.036804,0.037641,0.006773,-0.000877,0.999291,-0.000621,-0.037632,0.000877,0.999977,0.006772,0.037627,-0.006801,0.999269,0.037632,-0.006772,-0.999269,0.008663,0.002302,-0.022689,-0.003025,0.001014,-0.000398,22.602474,27.065258,-1.000000,-1.000000,-1.000000
482149737.168573,0.063263,-0.000336,-1.024872,0.037641,0.006773,-0.000877,0.999291,-0.000621,-0.037632,0.000877,0.999977,0.006772,0.037627,-0.006801,0.999269,0.037632,-0.006772,-0.999269,0.008663,0.002302,-0.022689,-0.003025,0.001014,-0.000398,22.602474,27.065258,-1.000000,-1.000000,-1.000000
482149737.178592,0.079788,-0.005859,-1.005341,0.037641,0.006773,-0.000877,0.999291,-0.000621,-0.037632,0.000877,0.999977,0.006772,0.037627,-0.006801,0.999269,0.037632,-0.006772,-0.999269,0.008663,0.002302,-0.022689,-0.003025,0.001014,-0.000398,22.602474,27.065258,-1.000000,-1.000000,-1.000000
482149737.188760,-0.091980,-0.003418,-1.046753,0.037641,0.006773,-0.000877,0.999291,-0.000621,-0.037632,0.000877,0.999977,0.006772,0.037627,-0.006801,0.999269,0.037632,-0.006772,-0.999269,0.008663,0.002302,-0.022689,-0.003025,0.001014,-0.000398,22.602474,27.065258,-1.000000,-1.000000,-1.000000
482149737.198575,0.015823,-0.004639,-1.003387,0.037641,0.006773,-0.000877,0.999291,-0.000621,-0.037632,0.000877,0.999977,0.006772,0.037627,-0.006801,0.999269,0.037632,-0.006772,-0.999269,0.008663,0.002302,-0.022689,-0.003025,0.001014,-0.000398,22.602474,27.065258,-1.000000,-1.000000,-1.000000
482149737.208131,0.004547,-0.004074,-1.031265,0.037641,0.006773,-0.000877,0.999291,-0.000621,-0.037632,0.000877,0.999977,0.006772,0.037627,-0.006801,0.999269,0.037632,-0.006772,-0.999269,0.008663,0.002302,-0.022689,-0.003025,0.001014,-0.000398,22.602474,27.065258,-1.000000,-1.000000,-1.000000
482149737.218850,0.015259,-0.006912,-1.030563,0.037641,0.006773,-0.000877,0.999291,-0.000621,-0.037632,0.000877,0.999977,0.006772,0.037627,-0.006801,0.999269,0.037632,-0.006772,-0.999269,0.008663,0.002302,-0.022689,-0.003025,0.001014,-0.000398,22.602474,27.065258,-1.000000,-1.000000,-1.000000
482149737.227748,0.107285,-0.008499,-1.005615,0.037641,0.006773,-0.000877,0.999291,-0.000621,-0.037632,0.000877,0.999977,0.006772,0.037627,-0.006801,0.999269,0.037632,-0.006772,-0.999269,0.008663,0.002302,-0.022689,-0.003025,0.001014,-0.000398,22.602474,27.065258,-1.000000,-1.000000,-1.000000
482149737.238596,0.171616,-0.006805,-1.012466,0.037641,0.006773,-0.000877,0.999291,-0.000621,-0.037632,0.000877,0.999977,0.006772,0.037627,-0.006801,0.999269,0.037632,-0.006772,-0.999269,0.008663,0.002302,-0.022689,-0.003025,0.001014,-0.000398,22.602474,27.065258,-1.000000,-1.000000,-1.000000
482149737.248017,0.171616,-0.006805,-1.012466,0.037641,0.006773,-0.000877,0.999291,-0.000621,-0.037632,0.000877,0.999977,0.006772,0.037627,-0.006801,0.999269,0.037632,-0.006772,-0.999269,0.008663,0.002302,-0.022689,-0.003025,0.001014,-0.000398,22.602474,27.065258,-1.000000,-1.000000,-1.000000
482149737.258087,0.089035,-0.007019,-1.031998,0.037641,0.006773,-0.000877,0.999291,-0.000621,-0.037632,0.000877,0.999977,0.006772,0.037627,-0.006801,0.999269,0.037632,-0.006772,-0.999269,0.008663,0.002302,-0.022689,-0.003025,0.001014,-0.000398,22.602474,27.065258,-1.000000,-1.000000,-1.000000
482149737.268658,0.096130,-0.004608,-0.997589,0.037641,0.006773,-0.000877,0.999291,-0.000621,-0.037632,0.000877,0.999977,0.006772,0.037627,-0.006801,0.999269,0.037632,-0.006772,-0.999269,0.008663,0.002302,-0.022689,-0.003025,0.001014,-0.000398,22.602474,27.065258,-1.000000,-1.000000,-1.000000
482149737.278705,0.099503,-0.003647,-1.005173,0.037641,0.006773,-0.000877,0.999291,-0.000621,-0.037632,0.000877,0.999977,0.006772,0.037627,-0.006801,0.999269,0.037632,-0.006772,-0.999269,0.008663,0.002302,-0.022689,-0.003025,0.001014,-0.000398,22.602474,27.065258,-1.000000,-1.000000,-1.000000
482149737.288710,0.016632,-0.006989,-1.038269,0.037641,0.006773,-0.000877,0.999291,-0.000621,-0.037632,0.000877,0.999977,0.006772,0.037627,-0.006801,0.999269,0.037632,-0.006772,-0.999269,0.008663,0.002302,-0.022689,-0.003025,0.001014,-0.000398,22.602474,27.065258,-1.000000,-1.000000,-1.000000
482149737.298663,-0.062103,-0.011703,-1.020584,0.037641,0.006773,-0.000877,0.999291,-0.000621,-0.037632,0.000877,0.999977,0.006772,0.037627,-0.006801,0.999269,0.037632,-0.006772,-0.999269,0.008663,0.002302,-0.022689,-0.003025,0.001014,-0.000398,22.602474,27.065258,-1.000000,-1.000000,-1.000000
482149737.308675,0.007874,-0.003128,-1.037872,0.037641,0.006773,-0.000877,0.999291,-0.000621,-0.037632,0.000877,0.999977,0.006772,0.037627,-0.006801,0.999269,0.037632,-0.006772,-0.999269,0.008663,0.002302,-0.022689,-0.003025,0.001014,-0.000398,22.602474,27.065258,-1.000000,-1.000000,-1.000000
482149737.318740,0.004898,-0.010910,-1.022400,0.037641,0.006773,-0.000877,0.999291,-0.000621,-0.037632,0.000877,0.999977,0.006772,0.037627,-0.006801,0.999269,0.037632,-0.006772,-0.999269,0.008663,0.002302,-0.022689,-0.003025,0.001014,-0.000398,22.602474,27.065258,-1.000000,-1.000000,-1.000000
482149737.328678,0.004547,-0.001892,-1.011856,0.037641,0.006773,-0.000877,0.999291,-0.000621,-0.037632,0.000877,0.999977,0.006772,0.037627,-0.006801,0.999269,0.037632,-0.006772,-0.999269,0.008663,0.002302,-0.022689,-0.003025,0.001014,-0.000398,22.602474,27.065258,-1.000000,-1.000000,-1.000000
482149737.338728,0.095123,-0.009766,-1.017975,0.037641,0.006773,-0.000877,0.999291,-0.000621,-0.037632,0.000877,0.999977,0.006772,0.037627,-0.006801,0.999269,0.037632,-0.006772,-0.999269,0.008663,0.002302,-0.022689,-0.003025,0.001014,-0.000398,22.602474,27.065258,-1.000000,-1.000000,-1.000000
482149737.348700,0.082230,-0.006912,-1.014908,0.037641,0.006773,-0.000877,0.999291,-0.000621,-0.037632,0.000877,0.999977,0.006772,0.037627,-0.006801,0.999269,0.037632,-0.006772,-0.999269,0.008663,0.002302,-0.022689,-0.003025,0.001014,-0.000398,22.602474,27.065258,-1.000000,-1.000000,-1.000000
482149737.358661,0.098022,-0.004761,-1.014954,0.037641,0.006773,-0.000877,0.999291,-0.000621,-0.037632,0.000877,0.999977,0.006772,0.037627,-0.006801,0.999269,0.037632,-0.006772,-0.999269,0.008663,0.002302,-0.022689,-0.003025,0.001014,-0.000398,22.602474,27.065258,-1.000000,-1.000000,-1.000000
482149737.368493,0.098022,-0.004761,-1.014954,0.037641,0.006773,-0.000877,0.999291,-0.000621,-0.037632,0.000877,0.999977,0.006772,0.037627,-0.006801,0.999269,0.037632,-0.006772,-0.999269,0.008663,0.002302,-0.022689,-0.003025,0.001014,-0.000398,22.602474,27.065258,-1.000000,-1.000000,-1.000000
482149737.378719,0.075684,-0.003098,-1.019226,0.037641,0.006773,-0.000877,0.999291,-0.000621,-0.037632,0.000877,0.999977,0.006772,0.037627,-0.006801,0.999269,0.037632,-0.006772,-0.999269,0.008663,0.002302,-0.022689,-0.003025,0.001014,-0.000398,22.602474,27.065258,-1.000000,-1.000000,-1.000000
482149737.388652,-0.030090,0.001495,-1.024658,0.037641,0.006773,-0.000877,0.999291,-0.000621,-0.037632,0.000877,0.999977,0.006772,0.037627,-0.006801,0.999269,0.037632,-0.006772,-0.999269,0.008663,0.002302,-0.022689,-0.003025,0.001014,-0.000398,22.602474,27.065258,-1.000000,-1.000000,-1.000000
482149737.398652,-0.073349,-0.003983,-1.027176,0.037641,0.006773,-0.000877,0.999291,-0.000621,-0.037632,0.000877,0.999977,0.006772,0.037627,-0.006801,0.999269,0.037632,-0.006772,-0.999269,0.008663,0.002302,-0.022689,-0.003025,0.001014,-0.000398,22.602474,27.065258,-1.000000,-1.000000,-1.000000
482149737.408698,-0.012314,-0.003265,-1.028397,0.037641,0.006773,-0.000877,0.999291,-0.000621,-0.037632,0.000877,0.999977,0.006772,0.037627,-0.006801,0.999269,0.037632,-0.006772,-0.999269,0.008663,0.002302,-0.022689,-0.003025,0.001014,-0.000398,22.602474,27.065258,-1.000000,-1.000000,-1.000000
482149737.418672,-0.041031,-0.004562,-1.025238,0.037641,0.006773,-0.000877,0.999291,-0.000621,-0.037632,0.000877,0.999977,0.006772,0.037627,-0.006801,0.999269,0.037632,-0.006772,-0.999269,0.008663,0.002302,-0.022689,-0.003025,0.001014,-0.000398,22.602474,27.065258,-1.000000,-1.000000,-1.000000
482149737.428737,-0.052811,-0.005707,-1.025925,0.037641,0.006773,-0.000877,0.999291,-0.000621,-0.037632,0.000877,0.999977,0.006772,0.037627,-0.006801,0.999269,0.037632,-0.006772,-0.999269,0.008663,0.002302,-0.022689,-0.003025,0.001014,-0.000398,22.602474,27.065258,-1.000000,-1.000000,-1.000000
482149737.438656,0.084793,-0.012589,-0.991348,0.037641,0.006773,-0.000877,0.999291,-0.000621,-0.037632,0.000877,0.999977,0.006772,0.037627,-0.006801,0.999269,0.037632,-0.006772,-0.999269,0.008663,0.002302,-0.022689,-0.003025,0.001014,-0.000398,22.602474,27.065258,-1.000000,-1.000000,-1.000000
482149737.448662,0.130219,-0.006683,-1.047974,0.037641,0.006773,-0.000877,0.999291,-0.000621,-0.037632,0.000877,0.999977,0.006772,0.037627,-0.006801,0.999269,0.037632,-0.006772,-0.999269,0.008663,0.002302,-0.022689,-0.003025,0.001014,-0.000398,22.602474,27.065258,-1.000000,-1.000000,-1.000000
482149737.458704,0.083359,-0.014893,-1.021545,0.037641,0.006773,-0.000877,0.999291,-0.000621,-0.037632,0.000877,0.999977,0.006772,0.037627,-0.006801,0.999269,0.037632,-0.006772,-0.999269,0.008663,0.002302,-0.022689,-0.003025,0.001014,-0.000398,22.602474,27.065258,-1.000000,-1.000000,-1.000000
482149737.469065,0.110611,-0.008530,-1.013168,0.037641,0.006773,-0.000877,0.999291,-0.000621,-0.037632,0.000877,0.999977,0.006772,0.037627,-0.006801,0.999269,0.037632,-0.006772,-0.999269,0.008663,0.002302,-0.022689,-0.003025,0.001014,-0.000398,22.602474,27.065258,-1.000000,-1.000000,-1.000000
482149737.478745,0.110611,-0.008530,-1.013168,0.037641,0.006773,-0.000877,0.999291,-0.000621,-0.037632,0.000877,0.999977,0.006772,0.037627,-0.006801,0.999269,0.037632,-0.006772,-0.999269,0.008663,0.002302,-0.022689,-0.003025,0.001014,-0.000398,22.602474,27.065258,-1.000000,-1.000000,-1.000000
482149737.488674,-0.046082,-0.011551,-1.025436,0.037641,0.006773,-0.000877,0.999291,-0.000621,-0.037632,0.000877,0.999977,0.006772,0.037627,-0.006801,0.999269,0.037632,-0.006772,-0.999269,0.008663,0.002302,-0.022689,-0.003025,0.001014,-0.000398,22.602474,27.065258,-1.000000,-1.000000,-1.000000
482149737.498687,0.009491,-0.006622,-0.995941,0.037641,0.006773,-0.000877,0.999291,-0.000621,-0.037632,0.000877,0.999977,0.006772,0.037627,-0.006801,0.999269,0.037632,-0.006772,-0.999269,0.008663,0.002302,-0.022689,-0.003025,0.001014,-0.000398,22.602474,27.065258,-1.000000,-1.000000,-1.000000
482149737.508704,0.005447,-0.001266,-1.046783,0.069316,0.002108,-0.000048,0.997599,0.000098,-0.069260,0.000048,0.999998,0.002108,0.069260,-0.002106,0.997596,0.069260,-0.002108,-0.997596,0.041351,-0.006422,-0.015572,-0.005794,0.000979,0.005315,22.602474,27.065258,-1.000000,-1.000000,-1.000000
482149737.518668,-0.050751,-0.015640,-1.032486,0.069286,0.002092,-0.000006,0.997601,0.000139,-0.069231,0.000006,0.999998,0.002092,0.069231,-0.002087,0.997598,0.069231,-0.002092,-0.997598,-0.115312,-0.009459,-0.027838,-0.001967,-0.005036,0.002069,22.602474,27.065258,-1.000000,-1.000000,-1.000000
482149737.528702,0.035263,-0.011490,-1.020584,0.069254,0.002047,0.000034,0.997603,0.000175,-0.069199,-0.000034,0.999998,0.002047,0.069199,-0.002040,0.997601,0.069199,-0.002047,-0.997601,-0.063751,0.000781,-0.049183,-0.002036,-0.000252,0.003177,22.602474,27.065258,-1.000000,-1.000000,-1.000000
482149737.538606,0.131149,-0.010452,-1.030396,0.069254,0.002047,0.000034,0.997603,0.000175,-0.069199,-0.000034,0.999998,0.002047,0.069199,-0.002040,0.997601,0.069199,-0.002047,-0.997601,-0.063751,0.000781,-0.049183,-0.002036,-0.000252,0.003177,22.602474,27.065258,-1.000000,-1.000000,-1.000000
482149737.548656,0.069412,-0.006073,-1.013733,0.069230,0.002030,0.000032,0.997605,0.000172,-0.069174,-0.000032,0.999998,0.002030,0.069174,-0.002023,0.997603,0.069174,-0.002030,-0.997603,-0.119925,-0.013610,-0.034883,-0.004316,-0.005037,0.000772,22.602474,27.065258,-1.000000,-1.000000,-1.000000
482149737.558651,0.076996,-0.014084,-1.030685,0.069187,0.002042,0.000136,0.997608,0.000277,-0.069131,-0.000136,0.999998,0.002042,0.069132,-0.002027,0.997606,0.069131,-0.002042,-0.997606,-0.033868,-0.009448,-0.022979,0.004943,-0.000240,0.008239,22.602474,27.065258,-1.000000,-1.000000,-1.000000
482149737.568657,0.076996,-0.014084,-1.030685,0.069187,0.002042,0.000136,0.997608,0.000277,-0.069131,-0.000136,0.999998,0.002042,0.069132,-0.002027,0.997606,0.069131,-0.002042,-0.997606,-0.033868,-0.009448,-0.022979,0.004943,-0.000240,0.008239,22.602474,27.065258,-1.000000,-1.000000,-1.000000
482149737.578754,0.100189,-0.004181,-1.055634,0.069168,0.002025,0.000183,0.997609,0.000322,-0.069113,-0.000183,0.999998,0.002025,0.069113,-0.002008,0.997607,0.069113,-0.002025,-0.997607,0.062037,-0.008427,-0.032789,0.001521,-0.001450,0.004553,22.602474,27.065258,-1.000000,-1.000000,-1.000000
482149737.588582,0.007111,-0.006760,-1.006760,0.069108,0.002042,0.000265,0.997613,0.000405,-0.069053,-0.000265,0.999998,0.002042,0.069054,-0.002019,0.997611,0.069053,-0.002042,-0.997611,0.007943,-0.012042,-0.033075,0.005145,-0.003852,0.004773,22.602474,27.065258,-1.000000,-1.000000,-1.000000
482149737.598017,-0.074036,-0.000092,-1.031158,0.069100,0.002048,0.000273,0.997613,0.000414,-0.069045,-0.000273,0.999998,0.002048,0.069046,-0.002024,0.997611,0.069045,-0.002048,-0.997611,0.031144,-0.002133,-0.058022,0.000447,-0.002659,0.002163,22.602474,27.065258,-1.000000,-1.000000,-1.000000
482149737.608605,0.000931,-0.002197,-1.036346,0.069100,0.002048,0.000273,0.997613,0.000414,-0.069045,-0.000273,0.999998,0.002048,0.069046,-0.002024,0.997611,0.069045,-0.002048,-0.997611,0.031144,-0.002133,-0.058022,0.000447,-0.002659,0.002163,22.602474,27.065258,-1.000000,-1.000000,-1.000000
482149737.618616,-0.034897,-0.011490,-1.032532,0.069051,0.002064,0.000275,0.997617,0.000416,-0.068996,-0.000275,0.999998,0.002064,0.068997,-0.002040,0.997615,0.068996,-0.002064,-0.997615,-0.061885,-0.004696,-0.009145,0.005412,0.000880,0.000024,22.602474,27.065258,-1.000000,-1.000000,-1.000000
482149737.628754,0.049286,-0.002640,-1.040237,0.069075,0.002080,0.000245,0.997615,0.000388,-0.069020,-0.000245,0.999998,0.002080,0.069021,-0.002058,0.997613,0.069020,-0.002080,-0.997613,-0.143056,0.001988,-0.033545,-0.004050,-0.000305,-0.003976,22.602474,27.065258,-1.000000,-1.000000,-1.000000
482149737.638786,0.148666,-0.003830,-0.986679,0.069031,0.002052,0.000225,0.997618,0.000366,-0.068976,-0.000225,0.999998,0.002052,0.068977,-0.002032,0.997616,0.068976,-0.002052,-0.997616,-0.103873,-0.009437,-0.034916,-0.000390,-0.002745,-0.002581,22.602474,27.065258,-1.000000,-1.000000,-1.000000
482149737.648744,0.072433,-0.005264,-1.033005,0.069031,0.002052,0.000225,0.997618,0.000366,-0.068976,-0.000225,0.999998,0.002052,0.068977,-0.002032,0.997616,0.068976,-0.002052,-0.997616,-0.103873,-0.009437,-0.034916,-0.000390,-0.002745,-0.002581,22.602474,27.065258,-1.000000,-1.000000,-1.000000
482149737.658694,0.077774,-0.010056,-1.024841,0.068989,0.002064,0.000218,0.997621,0.000360,-0.068934,-0.000218,0.999998,0.002064,0.068935,-0.002044,0.997619,0.068934,-0.002064,-0.997619,-0.019649,-0.000576,-0.042618,0.000752,-0.005127,-0.001314,22.602474,27.065258,-1.000000,-1.000000,-1.000000
482149737.667913,0.077774,-0.010056,-1.024841,0.068924,0.002056,0.000365,0.997626,0.000506,-0.068869,-0.000365,0.999998,0.002056,0.068870,-0.002026,0.997624,0.068869,-0.002056,-0.997624,0.079797,-0.001774,0.010945,-0.001934,0.002087,0.003149,22.602474,27.065258,-1.000000,-1.000000,-1.000000
482149737.678827,0.089340,-0.005890,-1.018372,0.068924,0.002056,0.000365,0.997626,0.000506,-0.068869,-0.000365,0.999998,0.002056,0.068870,-0.002026,0.997624,0.068869,-0.002056,-0.997624,0.079797,-0.001774,0.010945,-0.001934,0.002087,0.003149,22.602474,27.065258,-1.000000,-1.000000,-1.000000
482149737.688594,-0.066818,-0.004242,-1.057861,0.068948,0.002062,0.000368,0.997624,0.000509,-0.068893,-0.000368,0.999998,0.002062,0.068894,-0.002032,0.997622,0.068893,-0.002062,-0.997622,0.003540,-0.003202,-0.035383,0.001690,0.000878,0.003354,22.602474,27.065258,-1.000000,-1.000000,-1.000000
482149737.698655,-0.152756,-0.003815,-1.013489,0.068888,0.001986,0.000403,0.997628,0.000539,-0.068833,-0.000403,0.999998,0.001986,0.068834,-0.001954,0.997626,0.068833,-0.001986,-0.997626,0.020507,-0.003904,-0.020745,-0.007906,-0.000285,0.001696,22.602474,27.065258,-1.000000,-1.000000,-1.000000
482149737.708684,-0.041779,-0.001450,-1.009766,0.068885,0.001937,0.000434,0.997628,0.000567,-0.068830,-0.000434,0.999998,0.001937,0.068831,-0.001902,0.997626,0.068830,-0.001937,-0.997626,-0.135649,-0.002305,-0.060235,-0.005557,-0.000285,0.002992,22.602474,27.065258,-1.000000,-1.000000,-1.000000
482149737.718727,-0.030975,0.001251,-1.045105,0.068885,0.001937,0.000434,0.997628,0.000567,-0.068830,-0.000434,0.999998,0.001937,0.068831,-0.001902,0.997626,0.068830,-0.001937,-0.997626,-0.135649,-0.002305,-0.060235,-0.005557,-0.000285,0.002992,22.602474,27.065258,-1.000000,-1.000000,-1.000000
482149737.728643,-0.020126,-0.008133,-1.013260,0.068836,0.001805,0.000454,0.997632,0.000577,-0.068781,-0.000454,0.999998,0.001805,0.068782,-0.001770,0.997630,0.068781,-0.001805,-0.997630,-0.221537,-0.002010,-0.015859,-0.012668,-0.007437,0.000369,22.602474,27.065258,-1.000000,-1.000000,-1.000000
482149737.738661,0.106644,-0.010544,-1.013397,0.068778,0.001801,0.000490,0.997636,0.000613,-0.068724,-0.000490,0.999998,0.001801,0.068725,-0.001763,0.997634,0.068724,-0.001801,-0.997634,-0.110502,0.000351,-0.012132,0.003101,-0.006320,-0.000002,22.602474,27.065258,-1.000000,-1.000000,-1.000000
482149737.748593,0.113647,-0.012299,-0.997421,0.068778,0.001801,0.000490,0.997636,0.000613,-0.068724,-0.000490,0.999998,0.001801,0.068725,-0.001763,0.997634,0.068724,-0.001801,-0.997634,-0.110502,0.000351,-0.012132,0.003101,-0.006320,-0.000002,22.602474,27.065258,-1.000000,-1.000000,-1.000000
482149737.758989,0.129837,-0.007431,-1.022720,0.068729,0.001692,0.000575,0.997639,0.000690,-0.068675,-0.000575,0.999998,0.001692,0.068676,-0.001648,0.997638,0.068675,-0.001692,-0.997638,-0.088801,-0.006441,-0.015622,0.002025,-0.002756,-0.002455,22.602474,27.065258,-1.000000,-1.000000,-1.000000
482149737.768638,0.081848,-0.016006,-1.030350,0.068693,0.001670,0.000579,0.997641,0.000692,-0.068639,-0.000579,0.999998,0.001670,0.068640,-0.001626,0.997640,0.068639,-0.001670,-0.997640,0.038005,-0.008874,-0.015757,-0.005555,-0.006253,0.003072,22.602474,27.065258,-1.000000,-1.000000,-1.000000
482149737.778375,0.081848,-0.016006,-1.030350,0.068561,0.001616,0.000577,0.997650,0.000686,-0.068507,-0.000577,0.999999,0.001616,0.068508,-0.001573,0.997649,0.068507,-0.001616,-0.997649,0.045141,-0.010682,0.000228,0.000507,-0.008675,0.003420,22.602474,27.065258,-1.000000,-1.000000,-1.000000
482149737.788835,-0.040009,-0.003555,-1.025177,0.068561,0.001616,0.000577,0.997650,0.000686,-0.068507,-0.000577,0.999999,0.001616,0.068508,-0.001573,0.997649,0.068507,-0.001616,-0.997649,0.045141,-0.010682,0.000228,0.000507,-0.008675,0.003420,22.602474,27.065258,-1.000000,-1.000000,-1.000000
482149737.798475,-0.094452,-0.011322,-1.040985,0.068503,0.001589,0.000592,0.997654,0.000699,-0.068449,-0.000592,0.999999,0.001589,0.068450,-0.001545,0.997653,0.068449,-0.001589,-0.997653,0.061388,-0.005842,-0.025067,-0.002916,-0.006304,-0.000314,22.602474,27.065258,-1.000000,-1.000000,-1.000000
482149737.808676,-0.033127,-0.004471,-1.025742,0.068486,0.001502,0.000621,0.997656,0.000723,-0.068433,-0.000621,0.999999,0.001502,0.068434,-0.001456,0.997655,0.068433,-0.001502,-0.997655,-0.108441,-0.002053,-0.027522,-0.003119,-0.001498,0.003136,22.602474,27.065258,-1.000000,-1.000000,-1.000000
482149737.818657,-0.039948,-0.004578,-1.027115,0.068461,0.001487,0.000620,0.997657,0.000720,-0.068408,-0.000620,0.999999,0.001487,0.068409,-0.001441,0.997656,0.068408,-0.001487,-0.997656,-0.162859,-0.009835,-0.043329,-0.001776,-0.003911,0.000889,22.602474,27.065258,-1.000000,-1.000000,-1.000000
482149737.828658,0.024765,-0.003754,-1.023254,0.068461,0.001487,0.000620,0.997657,0.000720,-0.068408,-0.000620,0.999999,0.001487,0.068409,-0.001441,0.997656,0.068408,-0.001487,-0.997656,-0.162859,-0.009835,-0.043329,-0.001776,-0.003911,0.000889,22.602474,27.065258,-1.000000,-1.000000,-1.000000
482149737.838651,0.106735,-0.006805,-1.031906,0.068406,0.001395,0.000693,0.997661,0.000787,-0.068353,-0.000693,0.999999,0.001395,0.068354,-0.001344,0.997660,0.068353,-0.001395,-0.997660,-0.101480,-0.003076,-0.028081,-0.003119,-0.000304,0.003121,22.602474,27.065258,-1.000000,-1.000000,-1.000000
482149737.848655,0.194199,-0.006729,-1.030548,0.068392,0.001340,0.000681,0.997662,0.000771,-0.068339,-0.000681,0.999999,0.001340,0.068340,-0.001290,0.997661,0.068339,-0.001340,-0.997661,-0.108286,-0.003238,-0.029454,-0.010233,0.000899,0.000385,22.602474,27.065258,-1.000000,-1.000000,-1.000000
482149737.858897,0.137070,-0.005219,-1.009689,0.068362,0.001297,0.000745,0.997664,0.000831,-0.068309,-0.000745,0.999999,0.001297,0.068310,-0.001243,0.997663,0.068309,-0.001297,-0.997663,-0.043544,-0.002457,-0.025591,-0.001038,-0.003842,0.009150,22.602474,27.065258,-1.000000,-1.000000,-1.000000
482149737.868723,0.166885,0.000259,-0.994385,0.068354,0.001231,0.000749,0.997664,0.000831,-0.068301,-0.000749,0.999999,0.001231,0.068302,-0.001177,0.997664,0.068301,-0.001231,-0.997664,0.038435,-0.005574,-0.034242,-0.008891,0.000873,-0.001894,22.602474,27.065258,-1.000000,-1.000000,-1.000000
482149737.877872,0.166885,0.000259,-0.994385,0.068324,0.001204,0.000785,0.997666,0.000866,-0.068271,-0.000785,0.999999,0.001204,0.068272,-0.001148,0.997666,0.068271,-0.001204,-0.997666,0.125928,-0.005525,-0.032882,0.001647,-0.006282,0.004623,22.602474,27.065258,-1.000000,-1.000000,-1.000000
482149737.888708,-0.068939,-0.012970,-1.040405,0.068252,0.001100,0.000783,0.997671,0.000857,-0.068199,-0.000783,0.999999,0.001100,0.068200,-0.001044,0.997671,0.068199,-0.001100,-0.997671,0.068871,-0.004118,-0.012018,-0.006608,-0.001503,0.000605,22.602474,27.065258,-1.000000,-1.000000,-1.000000
482149737.898668,-0.070709,-0.011658,-1.006531,0.068252,0.001100,0.000783,0.997671,0.000857,-0.068199,-0.000783,0.999999,0.001100,0.068200,-0.001044,0.997671,0.068199,-0.001100,-0.997671,0.068871,-0.004118,-0.012018,-0.006608,-0.001503,0.000605,22.602474,27.065258,-1.000000,-1.000000,-1.000000
482149737.908703,-0.016266,0.003632,-1.024826,0.068254,0.001107,0.000808,0.997671,0.000882,-0.068201,-0.000808,0.999999,0.001107,0.068202,-0.001049,0.997671,0.068201,-0.001107,-0.997671,0.098684,0.001367,0.003286,0.000571,0.000864,0.002122,22.602474,27.065258,-1.000000,-1.000000,-1.000000
482149737.918683,-0.024017,-0.013153,-1.016342,0.068227,0.000975,0.000784,0.997673,0.000849,-0.068174,-0.000784,0.999999,0.000975,0.068174,-0.000919,0.997673,0.068174,-0.000975,-0.997673,-0.138883,-0.010683,-0.008858,-0.007816,-0.003886,0.000575,22.602474,27.065258,-1.000000,-1.000000,-1.000000
482149737.928661,0.048538,-0.003494,-1.026688,0.068196,0.000910,0.000816,0.997675,0.000876,-0.068144,-0.000816,0.999999,0.000910,0.068144,-0.000852,0.997675,0.068144,-0.000910,-0.997675,-0.084409,0.004541,-0.027151,-0.009081,-0.000292,0.001638,22.602474,27.065258,-1.000000,-1.000000,-1.000000
482149737.938606,0.157883,-0.014938,-1.017075,0.068196,0.000910,0.000816,0.997675,0.000876,-0.068144,-0.000816,0.999999,0.000910,0.068144,-0.000852,0.997675,0.068144,-0.000910,-0.997675,-0.084409,0.004541,-0.027151,-0.009081,-0.000292,0.001638,22.602474,27.065258,-1.000000,-1.000000,-1.000000
482149737.948660,0.172913,-0.002884,-1.017303,0.068201,0.000873,0.000823,0.997675,0.000880,-0.068148,-0.000823,0.999999,0.000873,0.068149,-0.000815,0.997675,0.068148,-0.000873,-0.997675,-0.092166,-0.012280,-0.018667,-0.005324,0.000865,-0.000532,22.602474,27.065258,-1.000000,-1.000000,-1.000000
482149737.958653,0.127609,-0.010361,-1.018951,0.068192,0.000834,0.000800,0.997675,0.000855,-0.068140,-0.000800,0.999999,0.000834,0.068140,-0.000778,0.997675,0.068140,-0.000834,-0.997675,-0.019601,-0.002660,-0.029012,-0.000291,-0.000380,-0.003778,22.602474,27.065258,-1.000000,-1.000000,-1.000000
482149737.968853,0.158539,-0.001144,-1.023026,0.068192,0.000834,0.000800,0.997675,0.000855,-0.068140,-0.000800,0.999999,0.000834,0.068140,-0.000778,0.997675,0.068140,-0.000834,-0.997675,-0.019601,-0.002660,-0.029012,-0.000291,-0.000380,-0.003778,22.602474,27.065258,-1.000000,-1.000000,-1.000000
482149737.977814,0.158539,-0.001144,-1.023026,0.068147,0.000791,0.000727,0.997679,0.000779,-0.068094,-0.000727,0.999999,0.000791,0.068095,-0.000740,0.997679,0.068094,-0.000791,-0.997679,0.104818,-0.002093,-0.019625,0.001990,0.000824,-0.001326,22.602474,27.065258,-1.000000,-1.000000,-1.000000
482149737.988758,-0.008804,-0.005920,-1.002899,0.068133,0.000847,0.000724,0.997680,0.000780,-0.068080,-0.000724,0.999999,0.000847,0.068081,-0.000796,0.997679,0.068080,-0.000847,-0.997679,0.104833,-0.002036,-0.019624,0.004406,-0.001573,-0.001169,22.602474,27.065258,-1.000000,-1.000000,-1.000000
482149737.998661,-0.116196,-0.006393,-1.018066,0.068099,0.000793,0.000693,0.997682,0.000746,-0.068046,-0.000693,0.999999,0.000793,0.068047,-0.000744,0.997682,0.068046,-0.000793,-0.997682,0.090493,-0.000351,-0.025344,-0.000359,0.000824,-0.002623,22.602474,27.065258,-1.000000,-1.000000,-1.000000
482149738.008604,-0.012619,-0.007187,-1.024460,0.068099,0.000793,0.000693,0.997682,0.000746,-0.068046,-0.000693,0.999999,0.000793,0.068047,-0.000744,0.997682,0.068046,-0.000793,-0.997682,0.090493,-0.000351,-0.025344,-0.000359,0.000824,-0.002623,22.602474,27.065258,-1.000000,-1.000000,-1.000000
482149738.018675,-0.042572,-0.002487,-1.013702,0.068080,0.000739,0.000757,0.997683,0.000806,-0.068027,-0.000757,0.999999,0.000739,0.068028,-0.000686,0.997683,0.068027,-0.000739,-0.997683,-0.076832,-0.005181,-0.005216,-0.001967,-0.003882,0.004406,22.602474,27.065258,-1.000000,-1.000000,-1.000000
482149738.028672,0.052765,-0.003708,-1.050705,0.068036,0.000641,0.000755,0.997686,0.000797,-0.067983,-0.000755,1.000000,0.000641,0.067984,-0.000588,0.997686,0.067983,-0.000641,-0.997686,-0.080602,-0.006546,-0.026774,-0.000425,-0.000359,-0.001436,22.602474,27.065258,-1.000000,-1.000000,-1.000000
482149738.038703,0.159317,-0.008850,-1.004425,0.068049,0.000598,0.000796,0.997685,0.000835,-0.067997,-0.000796,1.000000,0.000598,0.067997,-0.000543,0.997685,0.067997,-0.000598,-0.997685,-0.080616,-0.006589,-0.026774,-0.004452,0.003300,0.005355,22.602474,27.065258,-1.000000,-1.000000,-1.000000
482149738.048779,0.092743,0.001022,-1.024094,0.068049,0.000598,0.000796,0.997685,0.000835,-0.067997,-0.000796,1.000000,0.000598,0.067997,-0.000543,0.997685,0.067997,-0.000598,-0.997685,-0.080616,-0.006589,-0.026774,-0.004452,0.003300,0.005355,22.602474,27.065258,-1.000000,-1.000000,-1.000000
482149738.058638,0.084915,-0.006821,-1.009903,0.067989,0.000517,0.000853,0.997689,0.000886,-0.067937,-0.000853,1.000000,0.000517,0.067937,-0.000458,0.997689,0.067937,-0.000517,-0.997689,-0.015172,-0.003191,-0.053015,0.000917,-0.002773,-0.003684,22.602474,27.065258,-1.000000,-1.000000,-1.000000
482149738.068634,0.103104,-0.001923,-1.035080,0.068003,0.000480,0.000900,0.997688,0.000930,-0.067950,-0.000900,0.999999,0.000480,0.067951,-0.000417,0.997689,0.067950,-0.000480,-0.997689,0.091367,-0.008370,-0.006736,-0.006867,0.003310,0.005230,22.602474,27.065258,-1.000000,-1.000000,-1.000000
482149738.077673,0.103104,-0.001923,-1.035080,0.068003,0.000480,0.000900,0.997688,0.000930,-0.067950,-0.000900,0.999999,0.000480,0.067951,-0.000417,0.997689,0.067950,-0.000480,-0.997689,0.091367,-0.008370,-0.006736,-0.006867,0.003310,0.005230,22.602474,27.065258,-1.000000,-1.000000,-1.000000
482149738.087949,-0.080734,-0.004364,-1.054825,0.067964,0.000427,0.000978,0.997691,0.001004,-0.067912,-0.000978,0.999999,0.000427,0.067912,-0.000359,0.997691,0.067912,-0.000427,-0.997691,0.017003,-0.006394,-0.012212,-0.010349,-0.006243,0.002829,22.602474,27.065258,-1.000000,-1.000000,-1.000000
482149738.098736,-0.150192,-0.006683,-1.007477,0.067961,0.000378,0.000987,0.997691,0.001010,-0.067909,-0.000987,0.999999,0.000378,0.067909,-0.000310,0.997691,0.067909,-0.000378,-0.997691,0.017006,-0.006443,-0.012212,-0.004177,0.000872,0.000705,22.602474,27.065258,-1.000000,-1.000000,-1.000000
482149738.108638,-0.045914,-0.004623,-1.025528,0.067950,0.000280,0.001054,0.997692,0.001071,-0.067898,-0.001054,0.999999,0.000280,0.067898,-0.000208,0.997692,0.067898,-0.000280,-0.997692,-0.148632,-0.004084,-0.057133,-0.001829,0.000872,0.002002,22.602474,27.065258,-1.000000,-1.000000,-1.000000
482149738.118689,-0.066498,-0.003891,-1.026764,0.067950,0.000280,0.001054,0.997692,0.001071,-0.067898,-0.001054,0.999999,0.000280,0.067898,-0.000208,0.997692,0.067898,-0.000280,-0.997692,-0.148632,-0.004084,-0.057133,-0.001829,0.000872,0.002002,22.602474,27.065258,-1.000000,-1.000000,-1.000000
482149738.128661,-0.005844,-0.011063,-1.024002,0.067926,0.000271,0.001107,0.997693,0.001122,-0.067874,-0.001107,0.999999,0.000271,0.067874,-0.000195,0.997694,0.067874,-0.000271,-0.997694,-0.218066,-0.006412,-0.009783,-0.003304,-0.002661,0.006672,22.602474,27.065258,-1.000000,-1.000000,-1.000000
482149738.138663,0.089554,-0.009903,-1.024139,0.067882,0.000168,0.001142,0.997696,0.001151,-0.067830,-0.001142,0.999999,0.000168,0.067830,-0.000090,0.997697,0.067830,-0.000168,-0.997697,-0.134327,-0.003723,-0.029067,-0.004310,-0.002688,0.003095,22.602474,27.065258,-1.000000,-1.000000,-1.000000
482149738.148668,0.207016,-0.008362,-1.013245,0.067863,0.000108,0.001157,0.997698,0.001162,-0.067810,-0.001157,0.999999,0.000108,0.067811,-0.000029,0.997698,0.067810,-0.000108,-0.997698,-0.134308,-0.003783,-0.029066,-0.005117,-0.001552,-0.004011,22.602474,27.065258,-1.000000,-1.000000,-1.000000
482149738.158654,0.137939,-0.005188,-1.007706,0.067863,0.000108,0.001157,0.997698,0.001162,-0.067810,-0.001157,0.999999,0.000108,0.067811,-0.000029,0.997698,0.067810,-0.000108,-0.997698,-0.134308,-0.003783,-0.029066,-0.005117,-0.001552,-0.004011,22.602474,27.065258,-1.000000,-1.000000,-1.000000
482149738.168825,0.118515,-0.004486,-1.011780,0.067828,0.000092,0.001105,0.997700,0.001109,-0.067776,-0.001105,0.999999,0.000092,0.067776,-0.000017,0.997701,0.067776,-0.000092,-0.997701,0.021778,-0.009811,-0.026439,-0.003976,-0.002741,-0.002761,22.602474,27.065258,-1.000000,-1.000000,-1.000000
482149738.178748,-0.052200,-0.013779,-1.041336,0.067820,0.000038,0.001088,0.997701,0.001088,-0.067768,-0.001088,0.999999,0.000038,0.067768,0.000036,0.997701,0.067768,-0.000038,-0.997701,0.139248,-0.008324,-0.015544,-0.003910,-0.000364,-0.003964,22.602474,27.065258,-1.000000,-1.000000,-1.000000
482149738.187719,-0.052200,-0.013779,-1.041336,0.067820,0.000038,0.001088,0.997701,0.001088,-0.067768,-0.001088,0.999999,0.000038,0.067768,0.000036,0.997701,0.067768,-0.000038,-0.997701,0.139248,-0.008324,-0.015544,-0.003910,-0.000364,-0.003964,22.602474,27.065258,-1.000000,-1.000000,-1.000000
482149738.198694,-0.134430,-0.015656,-1.030685,0.067775,0.000001,0.001090,0.997704,0.001087,-0.067723,-0.001090,0.999999,0.000001,0.067723,0.000073,0.997704,0.067723,-0.000001,-0.997704,0.050792,-0.004485,-0.014076,-0.005183,-0.006316,-0.002776,22.602474,27.065258,-1.000000,-1.000000,-1.000000
482149738.208626,-0.064545,-0.003281,-1.063568,0.067734,-0.000037,0.001105,0.997706,0.001100,-0.067682,-0.001105,0.999999,-0.000037,0.067682,0.000112,0.997707,0.067682,0.000037,-0.997707,0.050833,-0.004523,-0.014073,-0.004176,-0.005096,0.000785,22.602474,27.065258,-1.000000,-1.000000,-1.000000
482149738.218095,-0.060547,-0.007629,-1.010803,0.067722,-0.000080,0.001107,0.997707,0.001099,-0.067670,-0.001107,0.999999,-0.000080,0.067670,0.000154,0.997708,0.067670,0.000080,-0.997708,-0.202100,-0.015735,-0.032978,-0.004508,0.000930,0.006559,22.602474,27.065258,-1.000000,-1.000000,-1.000000
482149738.228705,0.004013,-0.002792,-1.002167,0.067722,-0.000080,0.001107,0.997707,0.001099,-0.067670,-0.001107,0.999999,-0.000080,0.067670,0.000154,0.997708,0.067670,0.000080,-0.997708,-0.202100,-0.015735,-0.032978,-0.004508,0.000930,0.006559,22.602474,27.065258,-1.000000,-1.000000,-1.000000
482149738.238666,0.092377,-0.010040,-1.040482,0.067692,-0.000156,0.001101,0.997709,0.001088,-0.067640,-0.001101,0.999999,-0.000156,0.067640,0.000231,0.997710,0.067640,0.000156,-0.997710,-0.132185,-0.003437,-0.065858,-0.006520,-0.003897,-0.000531,22.602474,27.065258,-1.000000,-1.000000,-1.000000
482149738.248658,0.190277,-0.012344,-0.996704,0.067620,-0.000271,0.001120,0.997714,0.001100,-0.067569,-0.001120,0.999999,-0.000271,0.067569,0.000346,0.997715,0.067569,0.000271,-0.997715,-0.063556,-0.003063,-0.004452,-0.011420,0.000908,0.000326,22.602474,27.065258,-1.000000,-1.000000,-1.000000
482149738.258214,0.141678,-0.009079,-1.005478,0.067620,-0.000271,0.001120,0.997714,0.001100,-0.067569,-0.001120,0.999999,-0.000271,0.067569,0.000346,0.997715,0.067569,0.000271,-0.997715,-0.063556,-0.003063,-0.004452,-0.011420,0.000908,0.000326,22.602474,27.065258,-1.000000,-1.000000,-1.000000
482149738.268758,0.169952,-0.010071,-1.038757,0.067645,-0.000298,0.001135,0.997712,0.001112,-0.067593,-0.001135,0.999999,-0.000298,0.067593,0.000374,0.997713,0.067593,0.000298,-0.997713,-0.063580,-0.003090,-0.004454,-0.003033,0.002076,0.001921,22.602474,27.065258,-1.000000,-1.000000,-1.000000
482149738.278548,0.076431,-0.011978,-1.019073,0.067606,-0.000307,0.001141,0.997715,0.001118,-0.067554,-0.001141,0.999999,-0.000307,0.067554,0.000383,0.997716,0.067554,0.000307,-0.997716,0.122723,-0.012651,0.001011,0.000592,-0.003907,0.002189,22.602474,27.065258,-1.000000,-1.000000,-1.000000
482149738.288663,-0.136307,-0.012695,-1.030838,0.067619,-0.000367,0.001151,0.997714,0.001123,-0.067568,-0.001151,0.999999,-0.000367,0.067568,0.000444,0.997715,0.067568,0.000367,-0.997715,0.074110,-0.009446,-0.007763,-0.006791,0.002113,0.004074,22.602474,27.065258,-1.000000,-1.000000,-1.000000
482149738.298390,-0.136307,-0.012695,-1.030838,0.067619,-0.000367,0.001151,0.997714,0.001123,-0.067568,-0.001151,0.999999,-0.000367,0.067568,0.000444,0.997715,0.067568,0.000367,-0.997715,0.074110,-0.009446,-0.007763,-0.006791,0.002113,0.004074,22.602474,27.065258,-1.000000,-1.000000,-1.000000
482149738.308676,-0.070923,-0.001877,-1.016388,0.067564,-0.000359,0.001163,0.997718,0.001136,-0.067513,-0.001163,0.999999,-0.000359,0.067512,0.000437,0.997718,0.067513,0.000359,-0.997718,0.008919,-0.012337,-0.021355,-0.001556,-0.001552,-0.002654,22.602474,27.065258,-1.000000,-1.000000,-1.000000
482149738.318671,-0.055435,-0.016739,-1.037598,0.067539,-0.000358,0.001150,0.997719,0.001124,-0.067487,-0.001150,0.999999,-0.000358,0.067487,0.000435,0.997720,0.067487,0.000358,-0.997720,0.008944,-0.012336,-0.021353,0.004283,-0.003933,0.001206,22.602474,27.065258,-1.000000,-1.000000,-1.000000
482149738.328684,0.041168,-0.007660,-1.037766,0.067505,-0.000434,0.001142,0.997722,0.001110,-0.067454,-0.001142,0.999999,-0.000434,0.067453,0.000510,0.997722,0.067454,0.000434,-0.997722,-0.138377,-0.002311,-0.018666,-0.001624,0.002040,-0.001530,22.602474,27.065258,-1.000000,-1.000000,-1.000000
482149738.338647,0.171158,-0.014664,-1.007523,0.067505,-0.000434,0.001142,0.997722,0.001110,-0.067454,-0.001142,0.999999,-0.000434,0.067453,0.000510,0.997722,0.067454,0.000434,-0.997722,-0.138377,-0.002311,-0.018666,-0.001624,0.002040,-0.001530,22.602474,27.065258,-1.000000,-1.000000,-1.000000
482149738.348663,0.232117,-0.010345,-1.042801,0.067480,-0.000433,0.001146,0.997723,0.001114,-0.067429,-0.001146,0.999999,-0.000433,0.067428,0.000509,0.997724,0.067429,0.000433,-0.997724,-0.122864,-0.017172,-0.039874,0.000592,-0.001520,0.002157,22.602474,27.065258,-1.000000,-1.000000,-1.000000
482149738.358845,0.156113,-0.009232,-1.036667,0.067485,-0.000515,0.001083,0.997723,0.001046,-0.067433,-0.001083,0.999999,-0.000515,0.067433,0.000587,0.997724,0.067433,0.000515,-0.997724,0.103724,-0.015179,-0.009799,-0.007463,0.003227,-0.005375,22.602474,27.065258,-1.000000,-1.000000,-1.000000
482149738.369016,0.170990,0.001266,-0.997055,0.067426,-0.000537,0.001039,0.997727,0.001000,-0.067375,-0.001039,0.999999,-0.000537,0.067375,0.000605,0.997728,0.067375,0.000537,-0.997728,0.103783,-0.015200,-0.009795,-0.002482,-0.006349,-0.007348,22.602474,27.065258,-1.000000,-1.000000,-1.000000
482149738.378596,0.042755,-0.000427,-1.008621,0.067426,-0.000537,0.001039,0.997727,0.001000,-0.067375,-0.001039,0.999999,-0.000537,0.067375,0.000605,0.997728,0.067375,0.000537,-0.997728,0.103783,-0.015200,-0.009795,-0.002482,-0.006349,-0.007348,22.602474,27.065258,-1.000000,-1.000000,-1.000000
482149738.388679,-0.066193,0.004974,-1.028809,0.067366,-0.000607,0.001020,0.997731,0.000977,-0.067315,-0.001020,0.999999,-0.000607,0.067314,0.000674,0.997732,0.067315,0.000607,-0.997732,0.088798,-0.009838,-0.038935,-0.005033,-0.002738,-0.005179,22.602474,27.065258,-1.000000,-1.000000,-1.000000
482149738.398670,-0.009811,-0.010101,-1.023285,0.067379,-0.000639,0.001012,0.997730,0.000967,-0.067328,-0.001012,0.999999,-0.000639,0.067327,0.000706,0.997731,0.067328,0.000639,-0.997731,0.103662,0.000627,0.000676,-0.002953,-0.000308,0.000772,22.602474,27.065258,-1.000000,-1.000000,-1.000000
482149738.408044,-0.009811,-0.010101,-1.023285,0.067379,-0.000639,0.001012,0.997730,0.000967,-0.067328,-0.001012,0.999999,-0.000639,0.067327,0.000706,0.997731,0.067328,0.000639,-0.997731,0.103662,0.000627,0.000676,-0.002953,-0.000308,0.000772,22.602474,27.065258,-1.000000,-1.000000,-1.000000
482149738.418737,-0.103806,0.004181,-1.061172,0.067313,-0.000720,0.001048,0.997735,0.000997,-0.067263,-0.001048,0.999999,-0.000720,0.067262,0.000789,0.997735,0.067263,0.000720,-0.997735,-0.133455,0.004255,-0.031074,0.001679,-0.006264,0.004617,22.602474,27.065258,-1.000000,-1.000000,-1.000000
482149738.428670,-0.053925,-0.015030,-0.972458,0.067273,-0.000774,0.001106,0.997737,0.001051,-0.067222,-0.001106,0.999999,-0.000774,0.067221,0.000846,0.997738,0.067222,0.000774,-0.997738,-0.133415,0.004201,-0.031071,-0.010669,-0.001397,0.008610,22.602474,27.065258,-1.000000,-1.000000,-1.000000
482149738.438649,0.090134,0.003708,-1.047607,0.067229,-0.000871,0.001130,0.997740,0.001069,-0.067178,-0.001130,0.999999,-0.000871,0.067177,0.000945,0.997741,0.067178,0.000871,-0.997741,-0.170984,0.003310,-0.063432,-0.005435,-0.002674,0.001849,22.602474,27.065258,-1.000000,-1.000000,-1.000000
482149738.448693,0.129471,0.005966,-0.972427,0.067229,-0.000871,0.001130,0.997740,0.001069,-0.067178,-0.001130,0.999999,-0.000871,0.067177,0.000945,0.997741,0.067178,0.000871,-0.997741,-0.170984,0.003310,-0.063432,-0.005435,-0.002674,0.001849,22.602474,27.065258,-1.000000,-1.000000,-1.000000
482149738.458656,0.106155,-0.003708,-1.019348,0.067188,-0.000909,0.001134,0.997743,0.001071,-0.067137,-0.001134,0.999999,-0.000909,0.067136,0.000983,0.997743,0.067137,0.000909,-0.997743,-0.121062,-0.015939,0.025285,-0.003960,-0.001528,-0.002789,22.602474,27.065258,-1.000000,-1.000000,-1.000000
482149738.468661,0.117508,-0.007675,-1.031250,0.067172,-0.001006,0.001196,0.997744,0.001126,-0.067121,-0.001196,0.999999,-0.001006,0.067120,0.001084,0.997744,0.067121,0.001006,-0.997744,0.062350,0.004960,0.025317,-0.001879,-0.002679,0.003209,22.602474,27.065258,-1.000000,-1.000000,-1.000000
482149738.478780,-0.032700,-0.008133,-0.998459,0.067153,-0.001033,0.001205,0.997745,0.001133,-0.067102,-0.001205,0.999999,-0.001033,0.067101,0.001111,0.997746,0.067102,0.001033,-0.997746,0.062369,0.004933,0.025318,-0.003892,-0.002732,-0.003944,22.602474,27.065258,-1.000000,-1.000000,-1.000000
482149738.488695,-0.120285,-0.007004,-1.070740,0.067153,-0.001033,0.001205,0.997745,0.001133,-0.067102,-0.001205,0.999999,-0.001033,0.067101,0.001111,0.997746,0.067102,0.001033,-0.997746,0.062369,0.004933,0.025318,-0.003892,-0.002732,-0.003944,22.602474,27.065258,-1.000000,-1.000000,-1.000000
482149738.498670,-0.033112,-0.014420,-1.030472,0.067086,-0.001153,0.001155,0.997750,0.001075,-0.067036,-0.001155,0.999999,-0.001153,0.067034,0.001228,0.997750,0.067036,0.001153,-0.997750,0.050472,-0.008828,-0.033500,-0.002818,-0.006297,-0.001491,22.602474,27.065258,-1.000000,-1.000000,-1.000000
482149738.508671,-0.039719,-0.005417,-1.013504,0.067078,-0.001219,0.001159,0.997751,0.001075,-0.067028,-0.001159,0.999999,-0.001219,0.067026,0.001294,0.997750,0.067028,0.001219,-0.997750,-0.099727,-0.009352,-0.000708,-0.012482,0.000905,-0.002089,22.602474,27.065258,-1.000000,-1.000000,-1.000000
482149738.518349,-0.039719,-0.005417,-1.013504,0.067078,-0.001219,0.001159,0.997751,0.001075,-0.067028,-0.001159,0.999999,-0.001219,0.067026,0.001294,0.997750,0.067028,0.001219,-0.997750,-0.099727,-0.009352,-0.000708,-0.012482,0.000905,-0.002089,22.602474,27.065258,-1.000000,-1.000000,-1.000000
482149738.528563,0.020889,-0.020691,-1.031998,0.067017,-0.001261,0.001123,0.997755,0.001036,-0.066967,-0.001123,0.999999,-0.001261,0.066965,0.001333,0.997754,0.066967,0.001261,-0.997754,-0.100078,-0.015681,-0.032717,-0.008837,-0.005059,-0.001836,22.602474,27.065258,-1.000000,-1.000000,-1.000000
482149738.538785,0.088013,-0.007217,-1.049530,0.067014,-0.001282,0.001126,0.997755,0.001038,-0.066964,-0.001126,0.999999,-0.001282,0.066963,0.001355,0.997755,0.066964,0.001282,-0.997755,-0.100076,-0.015702,-0.032717,0.002032,-0.000331,-0.001334,22.602474,27.065258,-1.000000,-1.000000,-1.000000
482149738.548671,0.211563,-0.016190,-1.009964,0.067003,-0.001391,0.001086,0.997756,0.000990,-0.066953,-0.001086,0.999998,-0.001391,0.066952,0.001461,0.997755,0.066953,0.001391,-0.997755,-0.046064,-0.022082,-0.034243,-0.004947,-0.001535,-0.006381,22.602474,27.065258,-1.000000,-1.000000,-1.000000
482149738.558668,0.157761,-0.011124,-1.031693,0.067003,-0.001391,0.001086,0.997756,0.000990,-0.066953,-0.001086,0.999998,-0.001391,0.066952,0.001461,0.997755,0.066953,0.001391,-0.997755,-0.046064,-0.022082,-0.034243,-0.004947,-0.001535,-0.006381,22.602474,27.065258,-1.000000,-1.000000,-1.000000
482149738.568591,0.143341,-0.006195,-1.017105,0.067005,-0.001401,0.001040,0.997756,0.000944,-0.066955,-0.001040,0.999998,-0.001401,0.066954,0.001468,0.997755,0.066955,0.001401,-0.997755,0.021057,-0.008619,-0.051775,-0.006222,-0.000326,-0.005288,22.602474,27.065258,-1.000000,-1.000000,-1.000000
482149738.578672,0.086243,-0.011856,-1.018478,0.066962,-0.001504,0.001075,0.997758,0.000972,-0.066912,-0.001075,0.999998,-0.001504,0.066910,0.001573,0.997758,0.066912,0.001504,-0.997758,0.090849,-0.012628,-0.033935,-0.001925,-0.006230,0.004413,22.602474,27.065258,-1.000000,-1.000000,-1.000000
482149738.588838,-0.061951,-0.007950,-1.040039,0.066921,-0.001542,0.001074,0.997761,0.000968,-0.066871,-0.001074,0.999998,-0.001542,0.066869,0.001610,0.997760,0.066871,0.001542,-0.997760,0.076470,-0.007737,-0.019345,-0.004073,-0.003875,-0.000430,22.602474,27.065258,-1.000000,-1.000000,-1.000000
482149738.598655,-0.094498,-0.009308,-1.039078,0.066921,-0.001542,0.001074,0.997761,0.000968,-0.066871,-0.001074,0.999998,-0.001542,0.066869,0.001610,0.997760,0.066871,0.001542,-0.997760,0.076470,-0.007737,-0.019345,-0.004073,-0.003875,-0.000430,22.602474,27.065258,-1.000000,-1.000000,-1.000000
482149738.608662,-0.099777,-0.002350,-1.028793,0.066888,-0.001684,0.000980,0.997764,0.000865,-0.066838,-0.000980,0.999998,-0.001684,0.066836,0.001746,0.997762,0.066838,0.001684,-0.997762,0.019405,-0.013541,-0.020716,-0.008772,-0.000295,-0.003072,22.602474,27.065258,-1.000000,-1.000000,-1.000000
482149738.618657,-0.005844,-0.000122,-1.019302,0.066835,-0.001694,0.000983,0.997767,0.000868,-0.066786,-0.000983,0.999998,-0.001694,0.066784,0.001756,0.997766,0.066786,0.001694,-0.997766,-0.128736,-0.009644,-0.042273,-0.001657,-0.005079,-0.000288,22.602474,27.065258,-1.000000,-1.000000,-1.000000
482149738.627892,-0.005844,-0.000122,-1.019302,0.066835,-0.001694,0.000983,0.997767,0.000868,-0.066786,-0.000983,0.999998,-0.001694,0.066784,0.001756,0.997766,0.066786,0.001694,-0.997766,-0.128736,-0.009644,-0.042273,-0.001657,-0.005079,-0.000288,22.602474,27.065258,-1.000000,-1.000000,-1.000000
482149738.638832,0.082474,-0.000015,-1.015961,0.066765,-0.001869,0.000993,0.997772,0.000866,-0.066715,-0.000993,0.999998,-0.001869,0.066713,0.001931,0.997770,0.066715,0.001869,-0.997770,-0.166492,-0.004219,-0.031023,-0.007765,-0.000269,0.000505,22.602474,27.065258,-1.000000,-1.000000,-1.000000
482149738.648709,0.198456,-0.008316,-1.000153,0.066757,-0.001912,0.001013,0.997772,0.000883,-0.066707,-0.001013,0.999998,-0.001912,0.066705,0.001976,0.997771,0.066707,0.001912,-0.997771,-0.166484,-0.004262,-0.031023,-0.003268,-0.001430,0.006629,22.602474,27.065258,-1.000000,-1.000000,-1.000000
482149738.658776,0.148163,-0.004944,-0.996399,0.066713,-0.002026,0.000999,0.997775,0.000862,-0.066664,-0.000999,0.999997,-0.002026,0.066662,0.002088,0.997773,0.066664,0.002026,-0.997773,0.015810,-0.002042,-0.018187,-0.008948,-0.007405,0.000523,22.602474,27.065258,-1.000000,-1.000000,-1.000000
482149738.668790,0.165527,-0.002075,-1.025528,0.066713,-0.002026,0.000999,0.997775,0.000862,-0.066664,-0.000999,0.999997,-0.002026,0.066662,0.002088,0.997773,0.066664,0.002026,-0.997773,0.015810,-0.002042,-0.018187,-0.008948,-0.007405,0.000523,22.602474,27.065258,-1.000000,-1.000000,-1.000000
482149738.678777,0.056030,-0.012283,-1.024185,0.066694,-0.002069,0.000997,0.997776,0.000857,-0.066645,-0.000997,0.999997,-0.002069,0.066643,0.002131,0.997775,0.066645,0.002069,-0.997775,0.131811,-0.010385,-0.002378,-0.002911,0.000925,0.000726,22.602474,27.065258,-1.000000,-1.000000,-1.000000
482149738.688964,-0.097778,-0.006317,-1.031540,0.066673,-0.002133,0.001020,0.997778,0.000876,-0.066624,-0.001020,0.999997,-0.002133,0.066621,0.002196,0.997776,0.066624,0.002133,-0.997776,0.098904,-0.004208,-0.027752,-0.009150,-0.002599,0.003973,22.602474,27.065258,-1.000000,-1.000000,-1.000000
482149738.698907,-0.177139,-0.009338,-1.038193,0.066654,-0.002153,0.001040,0.997779,0.000894,-0.066605,-0.001040,0.999997,-0.002153,0.066603,0.002218,0.997777,0.066605,0.002153,-0.997777,0.098923,-0.004229,-0.027751,-0.001904,-0.001436,0.004334,22.602474,27.065258,-1.000000,-1.000000,-1.000000
482149738.708704,-0.093201,0.000946,-1.003174,0.066654,-0.002153,0.001040,0.997779,0.000894,-0.066605,-0.001040,0.999997,-0.002153,0.066603,0.002218,0.997777,0.066605,0.002153,-0.997777,0.098923,-0.004229,-0.027751,-0.001904,-0.001436,0.004334,22.602474,27.065258,-1.000000,-1.000000,-1.000000
482149738.718657,-0.086731,-0.004242,-1.034775,0.066666,-0.002272,0.001068,0.997778,0.000915,-0.066617,-0.001068,0.999997,-0.002272,0.066614,0.002339,0.997776,0.066617,0.002272,-0.997776,-0.164395,-0.008590,-0.033764,-0.006601,0.000951,0.001708,22.602474,27.065258,-1.000000,-1.000000,-1.000000
482149738.728656,0.121292,-0.009369,-1.010574,0.066647,-0.002354,0.001073,0.997779,0.000913,-0.066598,-0.001073,0.999997,-0.002354,0.066596,0.002420,0.997777,0.066598,0.002354,-0.997777,-0.243737,-0.011693,-0.040416,-0.010024,-0.001453,-0.001962,22.602474,27.065258,-1.000000,-1.000000,-1.000000
482149738.738299,0.121292,-0.009369,-1.010574,0.066647,-0.002354,0.001073,0.997779,0.000913,-0.066598,-0.001073,0.999997,-0.002354,0.066596,0.002420,0.997777,0.066598,0.002354,-0.997777,-0.243737,-0.011693,-0.040416,-0.010024,-0.001453,-0.001962,22.602474,27.065258,-1.000000,-1.000000,-1.000000
482149738.748720,0.293549,-0.009293,-1.013870,0.066648,-0.002413,0.001041,0.997779,0.000878,-0.066598,-0.001041,0.999997,-0.002413,0.066596,0.002477,0.997777,0.066598,0.002413,-0.997777,-0.153329,-0.006655,-0.036998,-0.007675,-0.001453,-0.000666,22.602474,27.065258,-1.000000,-1.000000,-1.000000
482149738.758659,0.192490,-0.008789,-1.036438,0.066651,-0.002483,0.001067,0.997779,0.000899,-0.066601,-0.001067,0.999996,-0.002483,0.066599,0.002549,0.997777,0.066601,0.002483,-0.997777,-0.153332,-0.006725,-0.036998,-0.005528,0.000966,0.004114,22.602474,27.065258,-1.000000,-1.000000,-1.000000
482149738.768730,0.167297,-0.003815,-1.004013,0.066607,-0.002508,0.001046,0.997782,0.000877,-0.066558,-0.001046,0.999996,-0.002508,0.066555,0.002572,0.997779,0.066558,0.002508,-0.997779,0.226991,-0.011801,-0.016091,0.007154,-0.001567,-0.005768,22.602474,27.065258,-1.000000,-1.000000,-1.000000
482149738.778734,0.036774,-0.006424,-1.009857,0.066607,-0.002508,0.001046,0.997782,0.000877,-0.066558,-0.001046,0.999996,-0.002508,0.066555,0.002572,0.997779,0.066558,0.002508,-0.997779,0.226991,-0.011801,-0.016091,0.007154,-0.001567,-0.005768,22.602474,27.065258,-1.000000,-1.000000,-1.000000
482149738.788698,-0.125366,0.000107,-1.045898,0.066593,-0.002529,0.001033,0.997783,0.000863,-0.066544,-0.001033,0.999996,-0.002529,0.066542,0.002592,0.997780,0.066544,0.002529,-0.997780,0.125946,-0.011318,-0.038658,-0.006333,-0.001479,-0.002945,22.602474,27.065258,-1.000000,-1.000000,-1.000000
482149738.798544,-0.118027,-0.011215,-1.004501,0.066533,-0.002610,0.000981,0.997787,0.000806,-0.066484,-0.000981,0.999996,-0.002610,0.066481,0.002670,0.997784,0.066484,0.002610,-0.997784,-0.029710,-0.009034,-0.012073,-0.006332,-0.003866,-0.002913,22.602474,27.065258,-1.000000,-1.000000,-1.000000
482149738.808685,-0.090805,0.003708,-1.028320,0.066533,-0.002610,0.000981,0.997787,0.000806,-0.066484,-0.000981,0.999996,-0.002610,0.066481,0.002670,0.997784,0.066484,0.002610,-0.997784,-0.029710,-0.009034,-0.012073,-0.006332,-0.003866,-0.002913,22.602474,27.065258,-1.000000,-1.000000,-1.000000
482149738.818918,-0.047104,-0.018524,-1.028336,0.066487,-0.002675,0.000980,0.997790,0.000800,-0.066438,-0.000980,0.999996,-0.002675,0.066435,0.002734,0.997787,0.066438,0.002675,-0.997787,-0.191804,-0.002568,-0.048111,-0.003953,-0.006229,-0.001601,22.602474,27.065258,-1.000000,-1.000000,-1.000000
482149738.828597,0.086777,-0.005005,-1.025330,0.066487,-0.002683,0.000964,0.997790,0.000783,-0.066438,-0.000964,0.999996,-0.002683,0.066436,0.002741,0.997787,0.066438,0.002683,-0.997787,-0.184465,-0.013898,-0.006714,-0.006304,0.002125,-0.003010,22.602474,27.065258,-1.000000,-1.000000,-1.000000
482149738.838668,0.212250,-0.017120,-1.005035,0.066501,-0.002709,0.000934,0.997789,0.000752,-0.066452,-0.000934,0.999996,-0.002709,0.066450,0.002765,0.997786,0.066452,0.002709,-0.997786,-0.157257,0.000999,-0.030534,-0.002681,0.002110,-0.002822,22.602474,27.065258,-1.000000,-1.000000,-1.000000
482149738.848606,0.181290,-0.000885,-1.025558,0.066501,-0.002709,0.000934,0.997789,0.000752,-0.066452,-0.000934,0.999996,-0.002709,0.066450,0.002765,0.997786,0.066452,0.002709,-0.997786,-0.157257,0.000999,-0.030534,-0.002681,0.002110,-0.002822,22.602474,27.065258,-1.000000,-1.000000,-1.000000
482149738.857981,0.181290,-0.000885,-1.025558,0.066480,-0.002806,0.000925,0.997791,0.000737,-0.066431,-0.000925,0.999996,-0.002806,0.066428,0.002861,0.997787,0.066431,0.002806,-0.997787,0.020346,-0.007811,-0.027543,-0.002681,0.003303,-0.002838,22.602474,27.065258,-1.000000,-1.000000,-1.000000
482149738.868696,0.135178,-0.013000,-0.996124,0.066489,-0.002826,0.000912,0.997790,0.000722,-0.066439,-0.000912,0.999996,-0.002826,0.066437,0.002881,0.997786,0.066439,0.002826,-0.997786,0.145810,-0.019947,-0.007249,-0.006371,0.000942,-0.001823,22.602474,27.065258,-1.000000,-1.000000,-1.000000
482149738.878616,0.149292,-0.003159,-1.016769,0.066468,-0.002901,0.000913,0.997792,0.000718,-0.066418,-0.000913,0.999995,-0.002901,0.066416,0.002955,0.997788,0.066418,0.002901,-0.997788,0.114871,-0.003786,-0.027771,-0.006437,-0.000241,-0.000636,22.602474,27.065258,-1.000000,-1.000000,-1.000000
482149738.888673,-0.019562,-0.008240,-1.023911,0.066468,-0.002901,0.000913,0.997792,0.000718,-0.066418,-0.000913,0.999995,-0.002901,0.066416,0.002955,0.997788,0.066418,0.002901,-0.997788,0.114871,-0.003786,-0.027771,-0.006437,-0.000241,-0.000636,22.602474,27.065258,-1.000000,-1.000000,-1.000000
482149738.898568,-0.068604,-0.015823,-1.029678,0.066454,-0.002888,0.000894,0.997793,0.000700,-0.066405,-0.000894,0.999995,-0.002888,0.066402,0.002941,0.997789,0.066405,0.002888,-0.997789,0.068773,-0.015889,0.001664,0.003226,-0.001475,-0.000117,22.602474,27.065258,-1.000000,-1.000000,-1.000000
482149738.907986,-0.105118,-0.000748,-1.057297,0.066438,-0.002912,0.000889,0.997794,0.000693,-0.066389,-0.000889,0.999995,-0.002912,0.066387,0.002965,0.997790,0.066389,0.002912,-0.997790,-0.085951,-0.011152,-0.026121,-0.004021,-0.002638,-0.000478,22.602474,27.065258,-1.000000,-1.000000,-1.000000
482149738.917882,-0.031845,-0.019043,-1.001190,0.066438,-0.002912,0.000889,0.997794,0.000693,-0.066389,-0.000889,0.999995,-0.002912,0.066387,0.002965,0.997790,0.066389,0.002912,-0.997790,-0.085951,-0.011152,-0.026121,-0.004021,-0.002638,-0.000478,22.602474,27.065258,-1.000000,-1.000000,-1.000000
482149738.928642,0.086121,0.001892,-1.028381,0.066436,-0.002961,0.000876,0.997794,0.000677,-0.066386,-0.000876,0.999995,-0.002961,0.066384,0.003012,0.997790,0.066386,0.002961,-0.997790,-0.134990,-0.018784,-0.031889,-0.006303,-0.000262,-0.002978,22.602474,27.065258,-1.000000,-1.000000,-1.000000
482149738.938294,0.224152,-0.009232,-1.021927,0.066420,-0.003040,0.000909,0.997795,0.000706,-0.066371,-0.000909,0.999995,-0.003040,0.066369,0.003094,0.997790,0.066371,0.003040,-0.997790,-0.171489,-0.003788,-0.059506,0.007723,-0.003831,0.006022,22.602474,27.065258,-1.000000,-1.000000,-1.000000
482149738.948025,0.164001,-0.000992,-1.014938,0.066380,-0.003083,0.000919,0.997797,0.000712,-0.066331,-0.000919,0.999995,-0.003083,0.066328,0.003137,0.997793,0.066331,0.003083,-0.997793,-0.098176,-0.022126,-0.003397,-0.008986,-0.003790,0.001629,22.602474,27.065258,-1.000000,-1.000000,-1.000000
482149738.958663,0.122650,-0.004456,-1.015427,0.066380,-0.003083,0.000919,0.997797,0.000712,-0.066331,-0.000919,0.999995,-0.003083,0.066328,0.003137,0.997793,0.066331,0.003083,-0.997793,-0.098176,-0.022126,-0.003397,-0.008986,-0.003790,0.001629,22.602474,27.065258,-1.000000,-1.000000,-1.000000
482149738.968577,0.122650,-0.004456,-1.015427,0.066403,-0.003174,0.000898,0.997796,0.000685,-0.066354,-0.000898,0.999995,-0.003174,0.066351,0.003226,0.997791,0.066354,0.003174,-0.997791,0.157798,-0.012405,-0.024136,-0.011036,-0.001420,-0.004400,22.602474,27.065258,-1.000000,-1.000000,-1.000000
482149738.978717,0.103165,-0.009720,-1.021393,0.066352,-0.003216,0.000912,0.997799,0.000697,-0.066303,-0.000912,0.999994,-0.003216,0.066300,0.003269,0.997794,0.066303,0.003216,-0.997794,0.097699,-0.004208,-0.017144,-0.002982,-0.004973,0.003115,22.602474,27.065258,-1.000000,-1.000000,-1.000000
482149738.988469,-0.064682,-0.011810,-1.027512,0.066299,-0.003311,0.000973,0.997803,0.000751,-0.066250,-0.000973,0.999994,-0.003311,0.066247,0.003369,0.997798,0.066250,0.003311,-0.997798,0.056400,-0.007767,-0.017629,0.000708,-0.001418,0.002084,22.602474,27.065258,-1.000000,-1.000000,-1.000000
482149738.998716,-0.164383,-0.013138,-1.039307,0.066299,-0.003311,0.000973,0.997803,0.000751,-0.066250,-0.000973,0.999994,-0.003311,0.066247,0.003369,0.997798,0.066250,0.003311,-0.997798,0.056400,-0.007767,-0.017629,0.000708,-0.001418,0.002084,22.602474,27.065258,-1.000000,-1.000000,-1.000000
482149739.008694,-0.120010,-0.004654,-1.037720,0.066259,-0.003320,0.000976,0.997805,0.000754,-0.066210,-0.000976,0.999994,-0.003320,0.066207,0.003378,0.997800,0.066210,0.003320,-0.997800,0.036955,-0.013040,-0.023593,-0.001640,-0.005000,0.000835,22.602474,27.065258,-1.000000,-1.000000,-1.000000
482149739.018562,-0.103317,-0.005066,-1.000793,0.066248,-0.003350,0.000933,0.997806,0.000709,-0.066199,-0.000933,0.999994,-0.003350,0.066197,0.003405,0.997801,0.066199,0.003350,-0.997801,-0.230582,-0.016488,-0.041506,-0.005132,0.002156,-0.001791,22.602474,27.065258,-1.000000,-1.000000,-1.000000
482149739.028772,0.000122,-0.001251,-1.039337,0.066248,-0.003350,0.000933,0.997806,0.000709,-0.066199,-0.000933,0.999994,-0.003350,0.066197,0.003405,0.997801,0.066199,0.003350,-0.997801,-0.230582,-0.016488,-0.041506,-0.005132,0.002156,-0.001791,22.602474,27.065258,-1.000000,-1.000000,-1.000000
482149739.038596,0.222549,-0.008133,-1.009384,0.066229,-0.003415,0.000899,0.997807,0.000671,-0.066181,-0.000899,0.999994,-0.003415,0.066178,0.003467,0.997802,0.066181,0.003415,-0.997802,-0.186191,-0.008069,-0.039918,-0.003721,-0.005042,-0.005147,22.602474,27.065258,-1.000000,-1.000000,-1.000000
482149739.048656,0.194962,-0.013428,-1.010986,0.066198,-0.003444,0.000910,0.997810,0.000680,-0.066149,-0.000910,0.999994,-0.003444,0.066146,0.003497,0.997804,0.066149,0.003444,-0.997804,-0.169466,-0.008510,-0.002990,-0.002781,-0.003812,-0.000415,22.602474,27.065258,-1.000000,-1.000000,-1.000000
482149739.058653,0.151199,-0.003326,-1.034134,0.066201,-0.003459,0.000896,0.997809,0.000666,-0.066152,-0.000896,0.999994,-0.003459,0.066150,0.003511,0.997804,0.066152,0.003459,-0.997804,-0.066030,-0.004710,-0.041534,-0.001575,-0.000236,-0.000400,22.602474,27.065258,-1.000000,-1.000000,-1.000000
482149739.068610,0.084122,-0.013641,-0.998199,0.066201,-0.003459,0.000896,0.997809,0.000666,-0.066152,-0.000896,0.999994,-0.003459,0.066150,0.003511,0.997804,0.066152,0.003459,-0.997804,-0.066030,-0.004710,-0.041534,-0.001575,-0.000236,-0.000400,22.602474,27.065258,-1.000000,-1.000000,-1.000000
482149739.078373,0.084122,-0.013641,-0.998199,0.066219,-0.003539,0.000881,0.997808,0.000645,-0.066170,-0.000881,0.999993,-0.003539,0.066167,0.003589,0.997802,0.066170,0.003539,-0.997802,0.128792,-0.016966,-0.013184,-0.007882,-0.000168,0.003971,22.602474,27.065258,-1.000000,-1.000000,-1.000000
482149739.088735,-0.085434,-0.004288,-1.040527,0.066223,-0.003603,0.000906,0.997808,0.000665,-0.066174,-0.000906,0.999993,-0.003603,0.066171,0.003655,0.997802,0.066174,0.003603,-0.997802,0.085026,-0.006929,-0.036332,-0.007748,0.001005,0.001613,22.602474,27.065258,-1.000000,-1.000000,-1.000000
482149739.098669,-0.175568,-0.007446,-1.048813,0.066208,-0.003716,0.000928,0.997809,0.000681,-0.066159,-0.000928,0.999993,-0.003716,0.066156,0.003769,0.997802,0.066159,0.003716,-0.997802,0.017963,-0.017357,-0.000397,-0.007680,-0.003781,0.000505,22.602474,27.065258,-1.000000,-1.000000,-1.000000
482149739.108696,-0.090561,-0.007095,-1.019424,0.066208,-0.003716,0.000928,0.997809,0.000681,-0.066159,-0.000928,0.999993,-0.003716,0.066156,0.003769,0.997802,0.066159,0.003716,-0.997802,0.017963,-0.017357,-0.000397,-0.007680,-0.003781,0.000505,22.602474,27.065258,-1.000000,-1.000000,-1.000000
482149739.118698,-0.111893,0.000336,-1.040237,0.066151,-0.003747,0.000937,0.997813,0.000688,-0.066102,-0.000937,0.999993,-0.003747,0.066099,0.003800,0.997806,0.066102,0.003747,-0.997806,-0.151536,-0.008034,-0.042722,-0.001707,-0.004989,0.002006,22.602474,27.065258,-1.000000,-1.000000,-1.000000
482149739.128705,-0.012772,-0.008957,-1.004059,0.066114,-0.003865,0.000939,0.997815,0.000682,-0.066066,-0.000939,0.999992,-0.003865,0.066063,0.003918,0.997808,0.066066,0.003865,-0.997808,-0.156627,-0.010960,-0.021617,-0.009828,-0.002619,-0.004322,22.602474,27.065258,-1.000000,-1.000000,-1.000000
482149739.138650,0.136353,-0.005280,-1.014587,0.066114,-0.003865,0.000939,0.997815,0.000682,-0.066066,-0.000939,0.999992,-0.003865,0.066063,0.003918,0.997808,0.066066,0.003865,-0.997808,-0.156627,-0.010960,-0.021617,-0.009828,-0.002619,-0.004322,22.602474,27.065258,-1.000000,-1.000000,-1.000000
482149739.148598,0.296249,-0.012390,-1.029205,0.066096,-0.003891,0.000942,0.997816,0.000683,-0.066047,-0.000942,0.999992,-0.003891,0.066044,0.003944,0.997809,0.066047,0.003891,-0.997809,-0.177940,-0.003555,-0.042429,-0.001708,-0.002602,0.001974,22.602474,27.065258,-1.000000,-1.000000,-1.000000
482149739.158568,0.184647,-0.004730,-1.016571,0.066098,-0.004031,0.001003,0.997816,0.000735,-0.066050,-0.001003,0.999991,-0.004031,0.066046,0.004088,0.997808,0.066050,0.004031,-0.997808,-0.078821,-0.012987,-0.006251,-0.007882,-0.001362,0.003987,22.602474,27.065258,-1.000000,-1.000000,-1.000000
482149739.168670,0.184616,-0.005493,-0.998093,0.066101,-0.004079,0.000979,0.997816,0.000708,-0.066053,-0.000979,0.999991,-0.004079,0.066049,0.004135,0.997808,0.066053,0.004079,-0.997808,0.070300,-0.009358,-0.016780,-0.003857,0.002140,-0.002900,22.602474,27.065258,-1.000000,-1.000000,-1.000000
482149739.178551,0.055237,-0.011322,-1.027145,0.066101,-0.004079,0.000979,0.997816,0.000708,-0.066053,-0.000979,0.999991,-0.004079,0.066049,0.004135,0.997808,0.066053,0.004079,-0.997808,0.070300,-0.009358,-0.016780,-0.003857,0.002140,-0.002900,22.602474,27.065258,-1.000000,-1.000000,-1.000000
482149739.188132,0.055237,-0.011322,-1.027145,0.066053,-0.004081,0.000936,0.997819,0.000665,-0.066004,-0.000936,0.999991,-0.004081,0.066001,0.004134,0.997811,0.066004,0.004081,-0.997811,0.118643,-0.008811,-0.018760,-0.002515,0.000921,-0.005164,22.602474,27.065258,-1.000000,-1.000000,-1.000000
482149739.198632,-0.184372,-0.001587,-1.046494,0.066007,-0.004129,0.000924,0.997822,0.000649,-0.065958,-0.000924,0.999991,-0.004129,0.065955,0.004181,0.997814,0.065958,0.004129,-0.997814,0.118658,-0.009622,-0.000279,-0.002715,-0.003822,-0.001586,22.602474,27.065258,-1.000000,-1.000000,-1.000000
482149739.208553,-0.115173,-0.003204,-0.998611,0.066025,-0.004208,0.000962,0.997821,0.000682,-0.065976,-0.000962,0.999991,-0.004208,0.065973,0.004262,0.997812,0.065976,0.004208,-0.997812,-0.010740,-0.015530,-0.029333,-0.001575,0.000958,-0.000416,22.602474,27.065258,-1.000000,-1.000000,-1.000000
482149739.218561,-0.074356,-0.006989,-1.028168,0.066025,-0.004208,0.000962,0.997821,0.000682,-0.065976,-0.000962,0.999991,-0.004208,0.065973,0.004262,0.997812,0.065976,0.004208,-0.997812,-0.010740,-0.015530,-0.029333,-0.001575,0.000958,-0.000416,22.602474,27.065258,-1.000000,-1.000000,-1.000000
482149739.228626,0.067596,-0.002350,-1.033325,0.066006,-0.004206,0.000975,0.997822,0.000696,-0.065958,-0.000975,0.999991,-0.004206,0.065954,0.004261,0.997814,0.065958,0.004206,-0.997814,-0.250330,-0.005793,-0.048680,-0.002849,-0.003801,0.000756,22.602474,27.065258,-1.000000,-1.000000,-1.000000
482149739.238621,0.196167,-0.010269,-0.995392,0.065980,-0.004252,0.000922,0.997824,0.000639,-0.065931,-0.000922,0.999991,-0.004252,0.065928,0.004304,0.997815,0.065931,0.004252,-0.997815,-0.140287,-0.011241,-0.030353,-0.000100,-0.000283,-0.005022,22.602474,27.065258,-1.000000,-1.000000,-1.000000
482149739.248592,0.213821,-0.005478,-1.029388,0.065980,-0.004252,0.000922,0.997824,0.000639,-0.065931,-0.000922,0.999991,-0.004252,0.065928,0.004304,0.997815,0.065931,0.004252,-0.997815,-0.140287,-0.011241,-0.030353,-0.000100,-0.000283,-0.005022,22.602474,27.065258,-1.000000,-1.000000,-1.000000
482149739.258000,0.160172,-0.011993,-1.021820,0.065934,-0.004283,0.000958,0.997827,0.000673,-0.065886,-0.000958,0.999990,-0.004283,0.065882,0.004337,0.997818,0.065886,0.004283,-0.997818,0.001711,-0.006633,-0.035507,-0.002042,-0.007324,0.007894,22.602474,27.065258,-1.000000,-1.000000,-1.000000
482149739.267739,0.157944,-0.000031,-1.011429,0.065913,-0.004251,0.000979,0.997828,0.000696,-0.065865,-0.000979,0.999990,-0.004251,0.065861,0.004306,0.997819,0.065865,0.004251,-0.997819,0.130302,-0.014520,0.002428,-0.001777,0.002183,0.003082,22.602474,27.065258,-1.000000,-1.000000,-1.000000
482149739.278645,0.004517,-0.006882,-1.013733,0.065917,-0.004204,0.000996,0.997828,0.000717,-0.065868,-0.000996,0.999991,-0.004204,0.065865,0.004261,0.997819,0.065868,0.004204,-0.997819,0.147953,-0.009682,-0.031569,0.004532,-0.002659,-0.001225,22.602474,27.065258,-1.000000,-1.000000,-1.000000
482149739.288560,-0.134598,0.002060,-1.037735,0.065917,-0.004204,0.000996,0.997828,0.000717,-0.065868,-0.000996,0.999991,-0.004204,0.065865,0.004261,0.997819,0.065868,0.004204,-0.997819,0.147953,-0.009682,-0.031569,0.004532,-0.002659,-0.001225,22.602474,27.065258,-1.000000,-1.000000,-1.000000
482149739.297738,-0.134598,0.002060,-1.037735,0.065923,-0.004301,0.000970,0.997828,0.000685,-0.065875,-0.000970,0.999990,-0.004301,0.065871,0.004355,0.997819,0.065875,0.004301,-0.997819,0.092069,-0.004331,-0.013610,-0.003924,-0.000237,-0.001697,22.602474,27.065258,-1.000000,-1.000000,-1.000000
482149739.308575,-0.064621,-0.015594,-1.011948,0.065910,-0.004321,0.000989,0.997828,0.000703,-0.065862,-0.000989,0.999990,-0.004321,0.065858,0.004376,0.997819,0.065862,0.004321,-0.997819,-0.061345,-0.011202,-0.015914,-0.002984,-0.001393,0.003066,22.602474,27.065258,-1.000000,-1.000000,-1.000000
482149739.318593,-0.078751,0.001602,-1.052841,0.065862,-0.004389,0.000947,0.997832,0.000656,-0.065814,-0.000947,0.999990,-0.004389,0.065810,0.004442,0.997822,0.065814,0.004389,-0.997822,-0.200411,-0.002329,-0.039913,-0.006272,-0.001430,-0.002978,22.602474,27.065258,-1.000000,-1.000000,-1.000000
482149739.328391,-0.037827,-0.016312,-1.017136,0.065862,-0.004389,0.000947,0.997832,0.000656,-0.065814,-0.000947,0.999990,-0.004389,0.065810,0.004442,0.997822,0.065814,0.004389,-0.997822,-0.200411,-0.002329,-0.039913,-0.006272,-0.001430,-0.002978,22.602474,27.065258,-1.000000,-1.000000,-1.000000
482149739.338620,0.221115,-0.007080,-1.000748,0.065854,-0.004443,0.000902,0.997832,0.000608,-0.065806,-0.000902,0.999990,-0.004443,0.065802,0.004493,0.997823,0.065806,0.004443,-0.997823,-0.130426,-0.020038,-0.014125,-0.001173,-0.001493,-0.007412,22.602474,27.065258,-1.000000,-1.000000,-1.000000
482149739.348622,0.174423,-0.002975,-1.026917,0.065822,-0.004528,0.000882,0.997834,0.000582,-0.065774,-0.000882,0.999989,-0.004528,0.065770,0.004576,0.997824,0.065774,0.004528,-0.997824,-0.103600,-0.020840,-0.019311,0.004531,-0.000272,-0.001257,22.602474,27.065258,-1.000000,-1.000000,-1.000000
482149739.358613,0.122726,-0.007263,-0.999832,0.065822,-0.004528,0.000882,0.997834,0.000582,-0.065774,-0.000882,0.999989,-0.004528,0.065770,0.004576,0.997824,0.065774,0.004528,-0.997824,-0.103600,-0.020840,-0.019311,0.004531,-0.000272,-0.001257,22.602474,27.065258,-1.000000,-1.000000,-1.000000
482149739.368563,0.116638,-0.002731,-1.031372,0.065814,-0.004493,0.000873,0.997835,0.000575,-0.065766,-0.000873,0.999990,-0.004493,0.065763,0.004541,0.997825,0.065766,0.004493,-0.997825,0.155349,-0.011573,-0.002923,0.003256,-0.000257,-0.000149,22.602474,27.065258,-1.000000,-1.000000,-1.000000
482149739.378633,-0.053741,-0.011703,-1.029785,0.065733,-0.004617,0.000843,0.997840,0.000538,-0.065685,-0.000843,0.999989,-0.004617,0.065682,0.004662,0.997830,0.065685,0.004617,-0.997830,0.108738,-0.007592,-0.029087,-0.015935,-0.002583,-0.003465,22.602474,27.065258,-1.000000,-1.000000,-1.000000
482149739.388641,-0.155930,-0.003021,-1.027283,0.065731,-0.004693,0.000825,0.997840,0.000515,-0.065683,-0.000825,0.999989,-0.004693,0.065680,0.004737,0.997829,0.065683,0.004693,-0.997829,0.057044,-0.011956,-0.002003,-0.004058,-0.000216,0.000646,22.602474,27.065258,-1.000000,-1.000000,-1.000000
482149739.398570,-0.065918,-0.009781,-1.021790,0.065731,-0.004693,0.000825,0.997840,0.000515,-0.065683,-0.000825,0.999989,-0.004693,0.065680,0.004737,0.997829,0.065683,0.004693,-0.997829,0.057044,-0.011956,-0.002003,-0.004058,-0.000216,0.000646,22.602474,27.065258,-1.000000,-1.000000,-1.000000
482149739.408761,-0.091537,-0.002335,-1.036057,0.065688,-0.004778,0.000826,0.997843,0.000511,-0.065640,-0.000826,0.999988,-0.004778,0.065637,0.004822,0.997832,0.065640,0.004778,-0.997832,-0.119382,-0.016481,-0.031953,-0.008688,-0.002614,-0.003088,22.602474,27.065258,-1.000000,-1.000000,-1.000000
482149739.418685,-0.091537,-0.002335,-1.036057,0.065670,-0.004854,0.000803,0.997844,0.000482,-0.065622,-0.000803,0.999988,-0.004854,0.065619,0.004896,0.997833,0.065622,0.004854,-0.997833,-0.221551,-0.007875,-0.029450,-0.005131,-0.003812,-0.001712,22.602474,27.065258,-1.000000,-1.000000,-1.000000
482149739.428997,-0.004715,-0.011078,-1.026855,0.065594,-0.004950,0.000805,0.997849,0.000478,-0.065547,-0.000805,0.999987,-0.004950,0.065543,0.004992,0.997837,0.065547,0.004950,-0.997837,-0.131465,-0.014731,-0.023952,0.000907,-0.001451,-0.001430,22.602474,27.065258,-1.000000,-1.000000,-1.000000
482149739.438648,0.111237,-0.004486,-1.004456,0.065594,-0.004950,0.000805,0.997849,0.000478,-0.065547,-0.000805,0.999987,-0.004950,0.065543,0.004992,0.997837,0.065547,0.004950,-0.997837,-0.131465,-0.014731,-0.023952,0.000907,-0.001451,-0.001430,22.602474,27.065258,-1.000000,-1.000000,-1.000000
482149739.449033,0.250412,-0.007858,-1.015488,0.065598,-0.004981,0.000818,0.997849,0.000490,-0.065550,-0.000818,0.999987,-0.004981,0.065547,0.005024,0.997837,0.065550,0.004981,-0.997837,-0.157088,-0.007316,-0.038220,-0.008890,0.000999,0.000378,22.602474,27.065258,-1.000000,-1.000000,-1.000000
482149739.458622,0.177231,-0.014633,-1.011047,0.065534,-0.005043,0.000846,0.997853,0.000514,-0.065486,-0.000846,0.999987,-0.005043,0.065483,0.005088,0.997841,0.065486,0.005043,-0.997841,0.045750,-0.009529,-0.006615,-0.001509,-0.001440,-0.001556,22.602474,27.065258,-1.000000,-1.000000,-1.000000
482149739.468636,0.137894,-0.009354,-1.027084,0.065534,-0.005043,0.000846,0.997853,0.000514,-0.065486,-0.000846,0.999987,-0.005043,0.065483,0.005088,0.997841,0.065486,0.005043,-0.997841,0.045750,-0.009529,-0.006615,-0.001509,-0.001440,-0.001556,22.602474,27.065258,-1.000000,-1.000000,-1.000000
482149739.478675,-0.072998,-0.015991,-1.039642,0.065515,-0.005036,0.000833,0.997855,0.000501,-0.065467,-0.000833,0.999987,-0.005036,0.065464,0.005080,0.997842,0.065467,0.005036,-0.997842,0.184945,-0.012894,-0.017646,0.003323,-0.002654,-0.001288,22.602474,27.065258,-1.000000,-1.000000,-1.000000
482149739.488681,-0.172241,-0.007278,-1.036957,0.065472,-0.005121,0.000802,0.997857,0.000465,-0.065424,-0.000802,0.999987,-0.005121,0.065421,0.005162,0.997844,0.065424,0.005121,-0.997844,0.111806,-0.019754,-0.013203,-0.005132,-0.001425,-0.001744,22.602474,27.065258,-1.000000,-1.000000,-1.000000
482149739.498593,-0.102203,-0.000504,-1.037689,0.065427,-0.005102,0.000891,0.997860,0.000555,-0.065380,-0.000891,0.999987,-0.005102,0.065376,0.005149,0.997847,0.065380,0.005102,-0.997847,0.072514,-0.014455,-0.029237,0.002653,-0.003743,0.010440,22.602474,27.065258,-1.000000,-1.000000,-1.000000
482149739.508695,-0.098953,-0.004105,-1.008316,0.065427,-0.005102,0.000891,0.997860,0.000555,-0.065380,-0.000891,0.999987,-0.005102,0.065376,0.005149,0.997847,0.065380,0.005102,-0.997847,0.072514,-0.014455,-0.029237,0.002653,-0.003743,0.010440,0.000000,0.000000,-1.000000,-1.000000,-1.000000
482149739.519097,-0.098953,-0.004105,-1.008316,0.065411,-0.005170,0.000843,0.997861,0.000503,-0.065364,-0.000843,0.999986,-0.005170,0.065360,0.005214,0.997848,0.065364,0.005170,-0.997848,-0.237605,-0.012449,-0.039109,-0.001308,-0.000279,-0.005085,0.000000,0.000000,-1.000000,-1.000000,-1.000000
482149739.528762,0.034760,-0.006653,-1.027466,0.065397,-0.005207,0.000786,0.997862,0.000444,-0.065349,-0.000786,0.999986,-0.005207,0.065346,0.005247,0.997849,0.065349,0.005207,-0.997849,-0.167553,-0.005711,-0.039840,-0.003466,0.002021,-0.008763,0.000000,0.000000,-1.000000,-1.000000,-1.000000
482149739.538807,0.154755,-0.004196,-1.027100,0.065397,-0.005207,0.000786,0.997862,0.000444,-0.065349,-0.000786,0.999986,-0.005207,0.065346,0.005247,0.997849,0.065349,0.005207,-0.997849,-0.167553,-0.005711,-0.039840,-0.003466,0.002021,-0.008763,23.383200,27.845985,-1.000000,-1.000000,-1.000000
482149739.548667,0.278595,-0.007248,-0.990494,0.065406,-0.005242,0.000684,0.997862,0.000340,-0.065359,-0.000684,0.999986,-0.005242,0.065356,0.005275,0.997848,0.065359,0.005242,-0.997848,-0.164312,-0.009346,-0.010468,-0.003601,0.004430,-0.006452,23.383200,27.845985,-1.000000,-1.000000,-1.000000
482149739.558665,0.207108,-0.008392,-1.015182,0.065387,-0.005245,0.000686,0.997863,0.000342,-0.065340,-0.000686,0.999986,-0.005245,0.065337,0.005278,0.997849,0.065340,0.005245,-0.997849,-0.030580,-0.011898,-0.029617,0.001971,-0.002684,0.002156,23.383200,27.845985,-1.000000,-1.000000,-1.000000
482149739.568660,0.176193,-0.004898,-1.023865,0.065355,-0.005334,0.000736,0.997865,0.000386,-0.065308,-0.000736,0.999986,-0.005334,0.065305,0.005370,0.997851,0.065308,0.005334,-0.997851,0.213287,-0.012582,0.007357,-0.002726,-0.003878,-0.000422,23.383200,27.845985,-1.000000,-1.000000,-1.000000
482149739.578597,0.123978,-0.009293,-1.005569,0.065355,-0.005334,0.000736,0.997865,0.000386,-0.065308,-0.000736,0.999986,-0.005334,0.065305,0.005370,0.997851,0.065308,0.005334,-0.997851,0.213287,-0.012582,0.007357,-0.002726,-0.003878,-0.000422,23.383200,27.845985,-1.000000,-1.000000,-1.000000
482149739.588679,-0.081680,0.001770,-1.034561,0.065347,-0.005376,0.000717,0.997866,0.000365,-0.065299,-0.000717,0.999985,-0.005376,0.065297,0.005411,0.997851,0.065299,0.005376,-0.997851,0.141808,-0.013768,-0.017331,-0.009907,-0.001471,-0.002002,23.377243,27.840027,-1.000000,-1.000000,-1.000000
482149739.598664,-0.178818,-0.010193,-1.025665,0.065323,-0.005422,0.000610,0.997867,0.000254,-0.065276,-0.000610,0.999985,-0.005422,0.065274,0.005450,0.997853,0.065276,0.005422,-0.997853,0.110917,-0.010320,-0.026012,-0.003534,0.003225,-0.007608,23.377243,27.840027,-1.000000,-1.000000,-1.000000
482149739.608912,-0.102737,-0.003372,-1.028946,0.065271,-0.005469,0.000570,0.997871,0.000212,-0.065224,-0.000570,0.999985,-0.005469,0.065221,0.005495,0.997856,0.065224,0.005469,-0.997856,0.058754,-0.014762,-0.007714,-0.004940,-0.007480,-0.004014,23.377243,27.840027,-1.000000,-1.000000,-1.000000
482149739.618602,-0.099518,-0.004578,-1.053024,0.065271,-0.005469,0.000570,0.997871,0.000212,-0.065224,-0.000570,0.999985,-0.005469,0.065221,0.005495,0.997856,0.065224,0.005469,-0.997856,0.058754,-0.014762,-0.007714,-0.004940,-0.007480,-0.004014,23.377243,27.840027,-1.000000,-1.000000,-1.000000
482149739.627895,-0.099518,-0.004578,-1.053024,0.065232,-0.005492,0.000565,0.997873,0.000206,-0.065185,-0.000565,0.999985,-0.005492,0.065183,0.005517,0.997858,0.065185,0.005492,-0.997858,-0.244003,-0.015685,-0.027807,-0.006484,-0.001454,0.001700,23.377243,27.840027,-1.000000,-1.000000,-1.000000
482149739.638758,0.156509,0.000839,-1.021240,0.065234,-0.005446,0.000523,0.997873,0.000167,-0.065187,-0.000523,0.999985,-0.005445,0.065185,0.005468,0.997858,0.065187,0.005446,-0.997858,-0.167924,-0.008818,-0.031088,0.009820,-0.000422,-0.008040,23.377056,27.839840,-1.000000,-1.000000,-1.000000
482149739.648690,0.256927,-0.008896,-1.027725,0.065234,-0.005446,0.000523,0.997873,0.000167,-0.065187,-0.000523,0.999985,-0.005445,0.065185,0.005468,0.997858,0.065187,0.005446,-0.997858,-0.167924,-0.008818,-0.031088,0.009820,-0.000422,-0.008040,23.377056,27.839840,-1.000000,-1.000000,-1.000000
482149739.658769,0.150604,-0.005997,-1.005981,0.065130,-0.005552,0.000509,0.997880,0.000147,-0.065083,-0.000509,0.999984,-0.005552,0.065081,0.005573,0.997864,0.065083,0.005552,-0.997864,-0.164601,-0.010129,-0.055160,-0.006349,-0.005056,-0.000595,23.377056,27.839840,-1.000000,-1.000000,-1.000000
482149739.668692,0.175003,0.002090,-1.017258,0.065121,-0.005583,0.000474,0.997880,0.000110,-0.065074,-0.000474,0.999984,-0.005583,0.065073,0.005602,0.997865,0.065074,0.005583,-0.997865,0.091435,-0.004743,-0.023375,-0.005009,-0.000308,-0.002938,23.377056,27.839840,-1.000000,-1.000000,-1.000000
482149739.678671,0.036987,-0.007462,-1.014709,0.065083,-0.005616,0.000485,0.997883,0.000119,-0.065036,-0.000485,0.999984,-0.005616,0.065035,0.005636,0.997867,0.065036,0.005616,-0.997867,0.085568,-0.011613,-0.008114,-0.005007,-0.005083,-0.002874,23.377056,27.839840,-1.000000,-1.000000,-1.000000
482149739.688757,-0.127731,0.000366,-1.019806,0.065083,-0.005616,0.000485,0.997883,0.000119,-0.065036,-0.000485,0.999984,-0.005616,0.065035,0.005636,0.997867,0.065036,0.005616,-0.997867,0.085568,-0.011613,-0.008114,-0.005007,-0.005083,-0.002874,23.373810,27.836594,-1.000000,-1.000000,-1.000000
482149739.697854,-0.088409,-0.018021,-1.027908,0.065064,-0.005664,0.000467,0.997884,0.000098,-0.065017,-0.000467,0.999984,-0.005664,0.065015,0.005682,0.997868,0.065017,0.005664,-0.997868,0.109986,-0.003574,-0.019390,-0.005075,-0.002685,-0.001735,23.373810,27.836594,-1.000000,-1.000000,-1.000000
482149739.708614,-0.097321,0.003540,-1.035507,0.064971,-0.005776,0.000480,0.997890,0.000104,-0.064924,-0.000480,0.999983,-0.005776,0.064923,0.005795,0.997873,0.064924,0.005776,-0.997873,-0.027937,-0.013237,-0.016836,-0.010241,-0.004999,0.003902,23.373810,27.836594,-1.000000,-1.000000,-1.000000
482149739.718645,-0.045135,-0.018295,-1.009750,0.064971,-0.005776,0.000480,0.997890,0.000104,-0.064924,-0.000480,0.999983,-0.005776,0.064923,0.005795,0.997873,0.064924,0.005776,-0.997873,-0.027937,-0.013237,-0.016836,-0.010241,-0.004999,0.003902,23.373810,27.836594,-1.000000,-1.000000,-1.000000
482149739.728719,0.061737,-0.001633,-1.052139,0.064946,-0.005812,0.000472,0.997892,0.000094,-0.064900,-0.000472,0.999983,-0.005812,0.064898,0.005830,0.997875,0.064900,0.005812,-0.997875,-0.192631,-0.005446,-0.021931,-0.003734,-0.001517,-0.004030,23.373810,27.836594,-1.000000,-1.000000,-1.000000
482149739.737830,0.061737,-0.001633,-1.052139,0.064947,-0.005924,0.000478,0.997892,0.000093,-0.064900,-0.000478,0.999982,-0.005924,0.064898,0.005942,0.997874,0.064900,0.005924,-0.997874,-0.162221,-0.002384,-0.037633,0.000896,-0.000313,-0.000281,23.373810,27.836594,-1.000000,-1.000000,-1.000000
482149739.747659,0.173889,-0.013611,-1.003510,0.064912,-0.006015,0.000499,0.997894,0.000107,-0.064865,-0.000499,0.999982,-0.006015,0.064863,0.006035,0.997876,0.064865,0.006015,-0.997876,-0.110001,-0.024311,-0.011874,-0.016348,-0.003769,0.004743,23.375782,27.838566,-1.000000,-1.000000,-1.000000
482149739.758791,0.143494,-0.002258,-1.018112,0.064912,-0.006015,0.000499,0.997894,0.000107,-0.064865,-0.000499,0.999982,-0.006015,0.064863,0.006035,0.997876,0.064865,0.006015,-0.997876,-0.110001,-0.024311,-0.011874,-0.016348,-0.003769,0.004743,23.375782,27.838566,-1.000000,-1.000000,-1.000000
482149739.768765,0.113251,-0.010605,-1.026611,0.064916,-0.006089,0.000434,0.997894,0.000038,-0.064870,-0.000434,0.999981,-0.006089,0.064868,0.006104,0.997875,0.064870,0.006089,-0.997875,-0.003133,-0.007721,-0.054264,-0.003600,-0.000345,-0.006389,23.375782,27.838566,-1.000000,-1.000000,-1.000000
482149739.778454,-0.023331,-0.011108,-1.009506,0.064908,-0.006114,0.000415,0.997894,0.000018,-0.064861,-0.000415,0.999981,-0.006114,0.064860,0.006128,0.997876,0.064861,0.006114,-0.997876,0.109028,-0.019725,-0.005634,-0.001586,-0.001485,0.000780,23.375782,27.838566,-1.000000,-1.000000,-1.000000
482149739.788632,-0.123718,0.000000,-1.058426,0.064864,-0.006176,0.000411,0.997897,0.000009,-0.064817,-0.000411,0.999981,-0.006176,0.064816,0.006189,0.997878,0.064817,0.006176,-0.997878,0.048433,-0.016781,-0.028733,-0.007492,-0.000287,-0.001892,23.375782,27.838566,-1.000000,-1.000000,-1.000000
482149739.798617,-0.062546,-0.012589,-1.012817,0.064864,-0.006176,0.000411,0.997897,0.000009,-0.064817,-0.000411,0.999981,-0.006176,0.064816,0.006189,0.997878,0.064817,0.006176,-0.997878,0.048433,-0.016781,-0.028733,-0.007492,-0.000287,-0.001892,23.373121,27.835907,-1.000000,-1.000000,-1.000000
482149739.808678,-0.087051,-0.006363,-1.048370,0.064861,-0.006240,0.000344,0.997897,-0.000062,-0.064814,-0.000344,0.999980,-0.006240,0.064813,0.006250,0.997878,0.064814,0.006240,-0.997878,-0.088145,-0.017349,-0.011628,-0.008364,-0.002722,-0.007780,23.373121,27.835907,-1.000000,-1.000000,-1.000000
482149739.818680,-0.008438,-0.013138,-1.031921,0.064822,-0.006330,0.000334,0.997900,-0.000077,-0.064776,-0.000334,0.999980,-0.006330,0.064775,0.006338,0.997880,0.064776,0.006330,-0.997880,-0.188494,-0.006330,-0.060546,-0.003062,-0.001438,0.005402,23.373121,27.835907,-1.000000,-1.000000,-1.000000
482149739.828665,0.113403,-0.002518,-1.007278,0.064822,-0.006330,0.000334,0.997900,-0.000077,-0.064776,-0.000334,0.999980,-0.006330,0.064775,0.006338,0.997880,0.064776,0.006330,-0.997880,-0.188494,-0.006330,-0.060546,-0.003062,-0.001438,0.005402,23.373121,27.835907,-1.000000,-1.000000,-1.000000
482149739.837682,0.113403,-0.002518,-1.007278,0.064804,-0.006455,0.000338,0.997901,-0.000081,-0.064757,-0.000338,0.999979,-0.006455,0.064756,0.006464,0.997880,0.064757,0.006455,-0.997880,-0.127303,-0.019044,-0.014937,-0.016282,-0.000199,0.003524,23.373121,27.835907,-1.000000,-1.000000,-1.000000
482149739.848719,0.235306,-0.010971,-1.010544,0.064808,-0.006467,0.000273,0.997901,-0.000147,-0.064761,-0.000273,0.999979,-0.006467,0.064761,0.006471,0.997880,0.064761,0.006467,-0.997880,-0.073199,-0.019605,-0.034042,-0.005008,-0.003889,-0.002890,23.373795,27.836578,-1.000000,-1.000000,-1.000000
482149739.858667,0.172806,-0.006027,-1.034744,0.064773,-0.006498,0.000281,0.997903,-0.000140,-0.064726,-0.000281,0.999979,-0.006498,0.064725,0.006503,0.997882,0.064726,0.006498,-0.997882,0.048677,-0.009016,-0.009397,-0.004002,-0.001475,0.000655,23.373795,27.836578,-1.000000,-1.000000,-1.000000
482149739.868712,0.134781,-0.004196,-1.003052,0.064773,-0.006498,0.000281,0.997903,-0.000140,-0.064726,-0.000281,0.999979,-0.006498,0.064725,0.006503,0.997882,0.064726,0.006498,-0.997882,0.048677,-0.009016,-0.009397,-0.004002,-0.001475,0.000655,23.373795,27.836578,-1.000000,-1.000000,-1.000000
482149739.878653,0.089233,-0.003876,-1.015503,0.064790,-0.006576,0.000303,0.997902,-0.000123,-0.064743,-0.000303,0.999978,-0.006576,0.064742,0.006582,0.997880,0.064743,0.006576,-0.997880,0.170563,-0.017547,-0.012664,-0.000781,-0.001427,0.007870,23.373795,27.836578,-1.000000,-1.000000,-1.000000
482149739.888658,-0.078049,-0.004089,-1.031342,0.064771,-0.006629,0.000317,0.997903,-0.000113,-0.064724,-0.000317,0.999978,-0.006629,0.064723,0.006636,0.997881,0.064724,0.006629,-0.997881,0.108082,-0.012656,-0.036863,-0.009840,-0.002675,-0.003158,23.373795,27.836578,-1.000000,-1.000000,-1.000000
482149739.898680,-0.170822,-0.013107,-1.029007,0.064781,-0.006769,0.000275,0.997903,-0.000164,-0.064735,-0.000275,0.999977,-0.006769,0.064734,0.006773,0.997880,0.064735,0.006769,-0.997880,0.024499,-0.010645,-0.017623,-0.009842,0.003293,-0.003237,23.369848,27.832634,-1.000000,-1.000000,-1.000000
482149739.908377,-0.071259,0.000977,-1.027115,0.064781,-0.006769,0.000275,0.997903,-0.000164,-0.064735,-0.000275,0.999977,-0.006769,0.064734,0.006773,0.997880,0.064735,0.006769,-0.997880,0.024499,-0.010645,-0.017623,-0.009842,0.003293,-0.003237,23.369848,27.832634,-1.000000,-1.000000,-1.000000
482149739.918607,0.002533,-0.011841,-1.015747,0.064762,-0.006822,0.000240,0.997904,-0.000202,-0.064715,-0.000240,0.999977,-0.006822,0.064715,0.006824,0.997880,0.064715,0.006822,-0.997880,-0.142764,-0.010912,-0.033461,-0.003734,-0.001517,-0.004031,23.369848,27.832634,-1.000000,-1.000000,-1.000000
482149739.928653,0.125626,-0.009598,-1.036545,0.064739,-0.006829,0.000219,0.997905,-0.000224,-0.064693,-0.000219,0.999977,-0.006829,0.064693,0.006828,0.997882,0.064693,0.006829,-0.997882,-0.235515,-0.019936,-0.031125,-0.002527,0.000865,-0.003999,23.369848,27.832634,-1.000000,-1.000000,-1.000000
482149739.938649,0.271255,-0.009430,-1.001587,0.064739,-0.006829,0.000219,0.997905,-0.000224,-0.064693,-0.000219,0.999977,-0.006829,0.064693,0.006828,0.997882,0.064693,0.006829,-0.997882,-0.235515,-0.019936,-0.031125,-0.002527,0.000865,-0.003999,23.369848,27.832634,-1.000000,-1.000000,-1.000000
482149739.949021,0.271255,-0.009430,-1.001587,0.064753,-0.006815,0.000221,0.997904,-0.000221,-0.064706,-0.000221,0.999977,-0.006815,0.064706,0.006815,0.997881,0.064706,0.006815,-0.997881,-0.135965,-0.005838,-0.029234,0.001834,0.003305,0.004419,23.369770,27.832554,-1.000000,-1.000000,-1.000000
482149739.958761,0.206711,-0.009094,-0.989944,0.064715,-0.006893,0.000216,0.997907,-0.000230,-0.064668,-0.000216,0.999976,-0.006893,0.064668,0.006893,0.997883,0.064668,0.006893,-0.997883,0.060958,-0.016491,-0.038662,0.000964,-0.003904,-0.001405,23.369770,27.832554,-1.000000,-1.000000,-1.000000
482149739.968627,0.194855,-0.004669,-1.023727,0.064680,-0.006907,0.000257,0.997909,-0.000190,-0.064633,-0.000257,0.999976,-0.006907,0.064633,0.006909,0.997885,0.064633,0.006907,-0.997885,0.206622,-0.016337,-0.003702,-0.004404,-0.003800,0.007714,23.369770,27.832554,-1.000000,-1.000000,-1.000000
482149739.978666,0.090881,-0.017914,-1.034653,0.064680,-0.006907,0.000257,0.997909,-0.000190,-0.064633,-0.000257,0.999976,-0.006907,0.064633,0.006909,0.997885,0.064633,0.006907,-0.997885,0.206622,-0.016337,-0.003702,-0.004404,-0.003800,0.007714,23.369770,27.832554,-1.000000,-1.000000,-1.000000
482149739.988673,-0.085739,-0.006012,-1.017212,0.064690,-0.006991,0.000219,0.997908,-0.000233,-0.064644,-0.000219,0.999976,-0.006991,0.064644,0.006991,0.997884,0.064644,0.006991,-0.997884,0.142067,-0.016086,0.007939,-0.007559,-0.001471,-0.000706,23.369770,27.832554,-1.000000,-1.000000,-1.000000
482149739.998542,-0.153824,-0.011185,-1.052307,0.064626,-0.006967,0.000184,0.997913,-0.000266,-0.064580,-0.000184,0.999976,-0.006967,0.064580,0.006964,0.997888,0.064580,0.006967,-0.997888,0.130275,-0.011636,-0.025839,0.002239,-0.007501,-0.002466,23.369770,27.832554,-1.000000,-1.000000,-1.000000
482149740.008588,-0.106750,-0.008392,-1.030090,0.064539,-0.007101,0.000192,0.997918,-0.000267,-0.064493,-0.000192,0.999975,-0.007100,0.064493,0.007098,0.997893,0.064493,0.007100,-0.997893,-0.150232,-0.013112,-0.019319,-0.006283,-0.006260,-0.001750,23.365280,27.828064,-1.000000,-1.000000,-1.000000
482149740.019386,-0.134979,-0.000839,-1.031876,0.064539,-0.007101,0.000192,0.997918,-0.000267,-0.064493,-0.000192,0.999975,-0.007100,0.064493,0.007098,0.997893,0.064493,0.007100,-0.997893,-0.150232,-0.013112,-0.019319,-0.006283,-0.006260,-0.001750,23.365280,27.828064,-1.000000,-1.000000,-1.000000
482149740.028646,-0.027008,-0.011414,-1.033051,0.064525,-0.007110,0.000141,0.997919,-0.000318,-0.064478,-0.000141,0.999975,-0.007109,0.064479,0.007104,0.997894,0.064478,0.007109,-0.997894,-0.218302,-0.018294,-0.054413,-0.003669,0.002052,-0.005250,23.365280,27.828064,-1.000000,-1.000000,-1.000000
482149740.038704,0.125519,-0.007401,-1.015228,0.064427,-0.007171,0.000180,0.997925,-0.000282,-0.064380,-0.000180,0.999974,-0.007171,0.064381,0.007167,0.997900,0.064380,0.007171,-0.997900,-0.171131,-0.015563,-0.032191,0.003179,-0.005076,0.002250,23.365280,27.828064,-1.000000,-1.000000,-1.000000
482149740.048708,0.125519,-0.007401,-1.015228,0.064427,-0.007171,0.000180,0.997925,-0.000282,-0.064380,-0.000180,0.999974,-0.007171,0.064381,0.007167,0.997900,0.064380,0.007171,-0.997900,-0.171131,-0.015563,-0.032191,0.003179,-0.005076,0.002250,23.365280,27.828064,-1.000000,-1.000000,-1.000000
482149740.058567,0.149460,-0.009354,-1.040955,0.064396,-0.007219,0.000129,0.997927,-0.000336,-0.064350,-0.000129,0.999974,-0.007219,0.064350,0.007212,0.997901,0.064350,0.007219,-0.997901,-0.199329,-0.008058,-0.033974,-0.004606,-0.005146,-0.009902,23.365694,27.828480,-1.000000,-1.000000,-1.000000
482149740.068417,0.102921,-0.009659,-1.016541,0.064390,-0.007325,0.000081,0.997928,-0.000390,-0.064344,-0.000081,0.999973,-0.007325,0.064345,0.007315,0.997901,0.064344,0.007325,-0.997901,0.061175,-0.014726,-0.017327,-0.007426,0.002089,-0.003096,23.365694,27.828480,-1.000000,-1.000000,-1.000000
482149740.078519,-0.006302,-0.010971,-1.015305,0.064392,-0.007334,0.000041,0.997928,-0.000431,-0.064346,-0.000041,0.999973,-0.007334,0.064347,0.007321,0.997901,0.064346,0.007334,-0.997901,0.085114,-0.016688,-0.043054,0.002237,-0.000339,-0.002561,23.365694,27.828480,-1.000000,-1.000000,-1.000000
482149740.088776,-0.097382,0.005524,-1.033615,0.064392,-0.007334,0.000041,0.997928,-0.000431,-0.064346,-0.000041,0.999973,-0.007334,0.064347,0.007321,0.997901,0.064346,0.007334,-0.997901,0.085114,-0.016688,-0.043054,0.002237,-0.000339,-0.002561,23.365694,27.828480,-1.000000,-1.000000,-1.000000
482149740.098655,-0.198151,-0.007523,-1.030731,0.064342,-0.007413,-0.000012,0.997931,-0.000489,-0.064296,0.000012,0.999973,-0.007413,0.064298,0.007397,0.997903,0.064296,0.007413,-0.997903,0.038625,-0.017071,-0.018637,-0.000380,-0.001491,0.000843,23.365694,27.828480,-1.000000,-1.000000,-1.000000
482149740.108681,-0.118042,-0.001266,-0.999786,0.064334,-0.007454,0.000012,0.997931,-0.000467,-0.064288,-0.000012,0.999972,-0.007454,0.064290,0.007440,0.997904,0.064288,0.007454,-0.997904,-0.070590,-0.018425,-0.017401,-0.005077,-0.001491,-0.001751,23.363810,27.826595,-1.000000,-1.000000,-1.000000
482149740.118667,-0.074554,-0.008331,-1.062164,0.064329,-0.007566,0.000034,0.997932,-0.000452,-0.064283,-0.000034,0.999971,-0.007566,0.064285,0.007553,0.997903,0.064283,0.007566,-0.997903,-0.262434,-0.015089,-0.032828,-0.006486,0.000933,0.001668,23.363810,27.826595,-1.000000,-1.000000,-1.000000
482149740.128687,0.066818,-0.004196,-1.019745,0.064329,-0.007566,0.000034,0.997932,-0.000452,-0.064283,-0.000034,0.999971,-0.007566,0.064285,0.007553,0.997903,0.064283,0.007566,-0.997903,-0.262434,-0.015089,-0.032828,-0.006486,0.000933,0.001668,23.363810,27.826595,-1.000000,-1.000000,-1.000000
482149740.138653,0.199219,-0.008286,-0.996216,0.064300,-0.007691,0.000055,0.997934,-0.000439,-0.064254,-0.000055,0.999970,-0.007691,0.064255,0.007679,0.997904,0.064254,0.007691,-0.997904,-0.182296,-0.008958,-0.001882,-0.011249,-0.005026,0.000325,23.363810,27.826595,-1.000000,-1.000000,-1.000000
482149740.148649,0.213333,-0.000626,-1.036270,0.064273,-0.007780,0.000072,0.997935,-0.000428,-0.064227,-0.000072,0.999970,-0.007780,0.064228,0.007769,0.997905,0.064227,0.007780,-0.997905,-0.138781,-0.016112,-0.064259,-0.010108,-0.003827,0.001544,23.363810,27.826595,-1.000000,-1.000000,-1.000000
482149740.157824,0.213333,-0.000626,-1.036270,0.064273,-0.007780,0.000072,0.997935,-0.000428,-0.064227,-0.000072,0.999970,-0.007780,0.064228,0.007769,0.997905,0.064227,0.007780,-0.997905,-0.138781,-0.016112,-0.064259,-0.010108,-0.003827,0.001544,23.362024,27.824810,-1.000000,-1.000000,-1.000000
482149740.168531,0.174698,-0.010559,-0.998627,0.064253,-0.007795,0.000026,0.997936,-0.000474,-0.064207,-0.000026,0.999970,-0.007795,0.064209,0.007780,0.997906,0.064207,0.007795,-0.997906,0.002611,-0.011991,-0.021839,-0.002661,-0.001502,-0.001625,23.362024,27.824810,-1.000000,-1.000000,-1.000000
482149740.178792,0.179596,-0.000763,-1.012054,0.064199,-0.007912,0.000033,0.997940,-0.000475,-0.064153,-0.000033,0.999969,-0.007912,0.064154,0.007898,0.997909,0.064153,0.007912,-0.997909,0.149181,-0.008538,-0.038361,-0.001588,-0.001486,0.000780,23.362024,27.824810,-1.000000,-1.000000,-1.000000
482149740.188644,0.030548,-0.011597,-1.024750,0.064214,-0.007981,0.000095,0.997939,-0.000417,-0.064167,-0.000095,0.999968,-0.007981,0.064169,0.007971,0.997907,0.064167,0.007981,-0.997907,0.110530,-0.018540,-0.000719,-0.009170,-0.000209,0.006244,23.362024,27.824810,-1.000000,-1.000000,-1.000000
482149740.198593,-0.122116,-0.001678,-1.034027,0.064214,-0.007981,0.000095,0.997939,-0.000417,-0.064167,-0.000095,0.999968,-0.007981,0.064169,0.007971,0.997907,0.064167,0.007981,-0.997907,0.110530,-0.018540,-0.000719,-0.009170,-0.000209,0.006244,23.362024,27.824810,-1.000000,-1.000000,-1.000000
482149740.208762,-0.082596,0.002518,-1.054047,0.064191,-0.007982,0.000079,0.997940,-0.000434,-0.064145,-0.000079,0.999968,-0.007982,0.064147,0.007971,0.997909,0.064145,0.007982,-0.997909,0.115451,-0.008745,-0.014146,0.004653,-0.001543,-0.002420,23.352600,27.815384,-1.000000,-1.000000,-1.000000
482149740.218031,-0.033783,-0.016083,-1.000381,0.064134,-0.008002,0.000093,0.997944,-0.000420,-0.064088,-0.000093,0.999968,-0.008002,0.064089,0.007991,0.997912,0.064088,0.008002,-0.997912,-0.033540,-0.019598,-0.026838,-0.005411,-0.006213,0.004169,23.352600,27.815384,-1.000000,-1.000000,-1.000000
482149740.228682,0.084839,0.000748,-1.042053,0.064085,-0.008030,0.000120,0.997947,-0.000394,-0.064039,-0.000120,0.999968,-0.008030,0.064040,0.008021,0.997915,0.064039,0.008030,-0.997915,-0.146635,-0.005512,-0.056132,0.001902,-0.000287,0.003295,23.352600,27.815384,-1.000000,-1.000000,-1.000000
482149740.238734,0.196945,-0.008438,-1.008972,0.064085,-0.008030,0.000120,0.997947,-0.000394,-0.064039,-0.000120,0.999968,-0.008030,0.064040,0.008021,0.997915,0.064039,0.008030,-0.997915,-0.146635,-0.005512,-0.056132,0.001902,-0.000287,0.003295,23.352600,27.815384,-1.000000,-1.000000,-1.000000
482149740.248657,0.159103,-0.003036,-1.016190,0.064077,-0.008044,0.000128,0.997948,-0.000387,-0.064031,-0.000128,0.999968,-0.008044,0.064032,0.008035,0.997916,0.064031,0.008044,-0.997916,-0.097814,-0.024127,-0.002466,-0.005278,-0.002654,0.001779,23.352600,27.815384,-1.000000,-1.000000,-1.000000
482149740.258195,0.126068,-0.003326,-1.005539,0.064035,-0.008160,0.000226,0.997951,-0.000296,-0.063989,-0.000226,0.999967,-0.008160,0.063989,0.008158,0.997917,0.063989,0.008160,-0.997917,0.020850,-0.007413,-0.044136,-0.003197,-0.001418,0.007744,23.352600,27.815384,-1.000000,-1.000000,-1.000000
482149740.270081,0.123688,-0.003464,-1.016342,0.064035,-0.008160,0.000226,0.997951,-0.000296,-0.063989,-0.000226,0.999967,-0.008160,0.063989,0.008158,0.997917,0.063989,0.008160,-0.997917,0.020850,-0.007413,-0.044136,-0.003197,-0.001418,0.007744,23.350109,27.812893,-1.000000,-1.000000,-1.000000
482149740.278583,0.123688,-0.003464,-1.016342,0.064010,-0.008230,0.000219,0.997952,-0.000308,-0.063965,-0.000219,0.999966,-0.008230,0.063965,0.008227,0.997918,0.063965,0.008230,-0.997918,0.132981,-0.016668,-0.011054,-0.010043,-0.000257,0.000325,23.350109,27.812893,-1.000000,-1.000000,-1.000000
482149740.288740,-0.049744,-0.002701,-1.026749,0.063980,-0.008319,0.000322,0.997954,-0.000210,-0.063934,-0.000322,0.999965,-0.008319,0.063933,0.008322,0.997919,0.063934,0.008319,-0.997919,0.062134,-0.011645,-0.007619,-0.005413,0.000948,0.004074,23.350109,27.812893,-1.000000,-1.000000,-1.000000
482149740.298698,-0.141663,-0.005920,-1.038055,0.063955,-0.008272,0.000335,0.997956,-0.000194,-0.063909,-0.000335,0.999966,-0.008272,0.063908,0.008276,0.997921,0.063909,0.008272,-0.997921,0.059779,-0.011735,-0.018421,0.005459,-0.003872,0.004703,23.350109,27.812893,-1.000000,-1.000000,-1.000000
482149740.308673,-0.070511,-0.007919,-1.026962,0.063955,-0.008272,0.000335,0.997956,-0.000194,-0.063909,-0.000335,0.999966,-0.008272,0.063908,0.008276,0.997921,0.063909,0.008272,-0.997921,0.059779,-0.011735,-0.018421,0.005459,-0.003872,0.004703,23.350109,27.812893,-1.000000,-1.000000,-1.000000
482149740.318702,-0.079758,-0.001984,-1.016907,0.063879,-0.008339,0.000369,0.997961,-0.000164,-0.063833,-0.000369,0.999965,-0.008339,0.063832,0.008345,0.997926,0.063833,0.008339,-0.997926,-0.113577,-0.011039,-0.028823,0.000895,-0.000313,-0.000282,23.345703,27.808487,-1.000000,-1.000000,-1.000000
482149740.328685,0.003067,-0.004990,-1.022598,0.063854,-0.008397,0.000351,0.997962,-0.000186,-0.063808,-0.000351,0.999965,-0.008397,0.063808,0.008403,0.997927,0.063808,0.008397,-0.997927,-0.205471,-0.014318,-0.040129,-0.009641,-0.001513,-0.006687,23.345703,27.808487,-1.000000,-1.000000,-1.000000
482149740.338695,0.120773,0.001465,-1.014648,0.063821,-0.008381,0.000345,0.997964,-0.000191,-0.063775,-0.000345,0.999965,-0.008381,0.063774,0.008386,0.997929,0.063775,0.008381,-0.997929,-0.143533,-0.010365,-0.018978,-0.002661,-0.003889,-0.001593,23.345703,27.808487,-1.000000,-1.000000,-1.000000
482149740.348684,0.185608,-0.012436,-1.000885,0.063821,-0.008381,0.000345,0.997964,-0.000191,-0.063775,-0.000345,0.999965,-0.008381,0.063774,0.008386,0.997929,0.063775,0.008381,-0.997929,-0.143533,-0.010365,-0.018978,-0.002661,-0.003889,-0.001593,23.345703,27.808487,-1.000000,-1.000000,-1.000000
482149740.358651,0.162216,-0.002045,-1.018936,0.063774,-0.008407,0.000348,0.997967,-0.000189,-0.063729,-0.000348,0.999965,-0.008407,0.063728,0.008412,0.997932,0.063729,0.008407,-0.997932,-0.060662,-0.013396,-0.024666,-0.000311,-0.007470,-0.000249,23.345703,27.808487,-1.000000,-1.000000,-1.000000
482149740.368694,0.107925,-0.009628,-1.018188,0.063753,-0.008457,0.000386,0.997969,-0.000154,-0.063707,-0.000386,0.999964,-0.008457,0.063706,0.008464,0.997933,0.063707,0.008457,-0.997933,0.057066,-0.006992,-0.016716,-0.001454,-0.001507,-0.001563,23.344971,27.807755,-1.000000,-1.000000,-1.000000
482149740.378852,-0.070633,-0.006104,-1.042542,0.063753,-0.008457,0.000386,0.997969,-0.000154,-0.063707,-0.000386,0.999964,-0.008457,0.063706,0.008464,0.997933,0.063707,0.008457,-0.997933,0.057066,-0.006992,-0.016716,-0.001454,-0.001507,-0.001563,23.344971,27.807755,-1.000000,-1.000000,-1.000000
482149740.388250,-0.070633,-0.006104,-1.042542,0.063728,-0.008471,0.000394,0.997970,-0.000146,-0.063683,-0.000394,0.999964,-0.008471,0.063682,0.008479,0.997934,0.063683,0.008471,-0.997934,0.121925,-0.020907,-0.002951,-0.001722,-0.001465,0.003122,23.344971,27.807755,-1.000000,-1.000000,-1.000000
482149740.398698,-0.149841,-0.006958,-1.032700,0.063739,-0.008533,0.000389,0.997969,-0.000156,-0.063694,-0.000389,0.999964,-0.008533,0.063693,0.008540,0.997933,0.063694,0.008533,-0.997933,0.044232,-0.018161,-0.020255,-0.002529,0.000864,-0.004000,23.344971,27.807755,-1.000000,-1.000000,-1.000000
482149740.408657,-0.080795,-0.002197,-1.034454,0.063709,-0.008586,0.000387,0.997971,-0.000161,-0.063664,-0.000387,0.999963,-0.008586,0.063663,0.008593,0.997934,0.063664,0.008586,-0.997934,-0.134297,-0.014689,-0.044607,-0.006285,-0.002680,-0.001798,23.344971,27.807755,-1.000000,-1.000000,-1.000000
482149740.418672,-0.097443,-0.001205,-1.017014,0.063709,-0.008586,0.000387,0.997971,-0.000161,-0.063664,-0.000387,0.999963,-0.008586,0.063663,0.008593,0.997934,0.063664,0.008586,-0.997934,-0.134297,-0.014689,-0.044607,-0.006285,-0.002680,-0.001798,23.340416,27.803200,-1.000000,-1.000000,-1.000000
482149740.428776,0.030716,0.003281,-1.021042,0.063680,-0.008670,0.000285,0.997973,-0.000268,-0.063635,-0.000285,0.999962,-0.008670,0.063635,0.008671,0.997936,0.063635,0.008670,-0.997936,-0.213476,-0.015628,-0.034764,-0.009843,0.003292,-0.003237,23.340416,27.803200,-1.000000,-1.000000,-1.000000
482149740.438741,0.153397,-0.004150,-1.020386,0.063655,-0.008713,0.000256,0.997975,-0.000299,-0.063610,-0.000256,0.999962,-0.008712,0.063610,0.008711,0.997937,0.063610,0.008712,-0.997937,-0.144405,-0.010910,-0.036518,-0.002527,-0.003910,-0.003936,23.340416,27.803200,-1.000000,-1.000000,-1.000000
482149740.448788,0.273270,-0.007431,-1.001495,0.063630,-0.008721,0.000248,0.997976,-0.000307,-0.063585,-0.000248,0.999962,-0.008721,0.063585,0.008719,0.997938,0.063585,0.008721,-0.997938,-0.161028,-0.009926,-0.019075,-0.000179,-0.001523,-0.002671,23.340416,27.803200,-1.000000,-1.000000,-1.000000
482149740.458595,0.184662,-0.008698,-1.018448,0.063639,-0.008791,0.000261,0.997976,-0.000298,-0.063594,-0.000261,0.999961,-0.008791,0.063594,0.008790,0.997937,0.063594,0.008791,-0.997937,-0.032878,-0.005510,-0.023105,-0.005279,0.000927,0.001731,23.340416,27.803200,-1.000000,-1.000000,-1.000000
482149740.468554,0.149048,-0.009079,-1.014740,0.063631,-0.008844,0.000259,0.997976,-0.000304,-0.063585,-0.000259,0.999961,-0.008844,0.063586,0.008842,0.997937,0.063585,0.008844,-0.997937,0.089811,-0.012994,-0.022449,-0.006420,-0.001465,0.000528,23.340416,27.803200,-1.000000,-1.000000,-1.000000
482149740.478672,0.030716,-0.004684,-1.024826,0.063592,-0.008895,0.000238,0.997979,-0.000328,-0.063547,-0.000238,0.999960,-0.008894,0.063547,0.008892,0.997939,0.063547,0.008894,-0.997939,0.209723,-0.016325,-0.003556,-0.003803,-0.001508,-0.002860,23.336876,27.799660,-1.000000,-1.000000,-1.000000
482149740.488886,-0.184235,-0.008377,-1.033768,0.063592,-0.008895,0.000238,0.997979,-0.000328,-0.063547,-0.000238,0.999960,-0.008894,0.063547,0.008892,0.997939,0.063547,0.008894,-0.997939,0.209723,-0.016325,-0.003556,-0.003803,-0.001508,-0.002860,23.336876,27.799660,-1.000000,-1.000000,-1.000000
482149740.498822,-0.184235,-0.008377,-1.033768,0.063601,-0.008931,0.000268,0.997978,-0.000301,-0.063556,-0.000267,0.999960,-0.008931,0.063556,0.008930,0.997938,0.063556,0.008931,-0.997938,0.121106,-0.017628,-0.020510,-0.003937,0.000901,-0.000549,23.336876,27.799660,-1.000000,-1.000000,-1.000000
482149740.508688,-0.103256,0.000671,-1.017380,0.063594,-0.009049,0.000166,0.997979,-0.000410,-0.063548,-0.000166,0.999959,-0.009049,0.063550,0.009041,0.997938,0.063548,0.009049,-0.997938,-0.032833,-0.013733,-0.026888,-0.008567,-0.003885,-0.004250,23.336876,27.799660,-1.000000,-1.000000,-1.000000
482149740.518643,-0.102081,-0.009476,-1.044388,0.063587,-0.009124,0.000223,0.997979,-0.000357,-0.063542,-0.000223,0.999958,-0.009124,0.063542,0.009119,0.997938,0.063542,0.009124,-0.997938,-0.247776,-0.017501,-0.035830,-0.004071,-0.001465,0.001825,23.336876,27.799660,-1.000000,-1.000000,-1.000000
482149740.528737,0.015060,-0.008865,-1.027649,0.063587,-0.009124,0.000223,0.997979,-0.000357,-0.063542,-0.000223,0.999958,-0.009124,0.063542,0.009119,0.997938,0.063542,0.009124,-0.997938,-0.247776,-0.017501,-0.035830,-0.004071,-0.001465,0.001825,23.330446,27.793232,-1.000000,-1.000000,-1.000000
482149740.538680,0.169388,-0.006790,-1.007736,0.063521,-0.009240,0.000241,0.997983,-0.000346,-0.063476,-0.000241,0.999957,-0.009240,0.063476,0.009237,0.997941,0.063476,0.009240,-0.997941,-0.166732,-0.008569,-0.019439,-0.009856,-0.000335,-0.002023,23.330446,27.793232,-1.000000,-1.000000,-1.000000
482149740.548670,0.235001,-0.003143,-1.019394,0.063513,-0.009248,0.000281,0.997984,-0.000307,-0.063468,-0.000281,0.999957,-0.009248,0.063468,0.009247,0.997941,0.063468,0.009248,-0.997941,-0.165549,-0.018723,-0.046447,-0.004151,-0.002695,0.004179,23.330446,27.793232,-1.000000,-1.000000,-1.000000
482149740.558538,0.149384,-0.012131,-1.022461,0.063513,-0.009248,0.000281,0.997984,-0.000307,-0.063468,-0.000281,0.999957,-0.009248,0.063468,0.009247,0.997941,0.063468,0.009248,-0.997941,-0.165549,-0.018723,-0.046447,-0.004151,-0.002695,0.004179,23.330446,27.793232,-1.000000,-1.000000,-1.000000
482149740.568751,0.156143,-0.004059,-1.016357,0.063469,-0.009308,0.000335,0.997987,-0.000256,-0.063424,-0.000335,0.999957,-0.009308,0.063423,0.009311,0.997943,0.063424,0.009308,-0.997943,0.105964,-0.016098,-0.009793,-0.008780,-0.005094,0.000446,23.330446,27.793232,-1.000000,-1.000000,-1.000000
482149740.578682,0.003357,-0.007828,-1.010895,0.063482,-0.009311,0.000310,0.997986,-0.000281,-0.063436,-0.000310,0.999957,-0.009311,0.063436,0.009312,0.997942,0.063436,0.009311,-0.997942,0.171564,-0.012454,-0.021451,0.004637,0.003184,-0.001317,23.325991,27.788776,-1.000000,-1.000000,-1.000000
482149740.588661,-0.147369,0.002930,-1.037537,0.063415,-0.009383,0.000295,0.997990,-0.000300,-0.063369,-0.000295,0.999956,-0.009383,0.063370,0.009383,0.997946,0.063369,0.009383,-0.997946,0.086014,-0.021513,-0.024515,-0.003948,-0.007502,0.000729,23.325991,27.788776,-1.000000,-1.000000,-1.000000
482149740.598731,-0.052979,-0.014633,-1.026779,0.063415,-0.009383,0.000295,0.997990,-0.000300,-0.063369,-0.000295,0.999956,-0.009383,0.063370,0.009383,0.997946,0.063369,0.009383,-0.997946,0.086014,-0.021513,-0.024515,-0.003948,-0.007502,0.000729,23.325991,27.788776,-1.000000,-1.000000,-1.000000
482149740.608672,-0.052979,-0.014633,-1.026779,0.063423,-0.009430,0.000308,0.997990,-0.000290,-0.063378,-0.000308,0.999955,-0.009430,0.063377,0.009430,0.997945,0.063378,0.009430,-0.997945,0.092766,-0.013488,-0.018412,-0.007575,0.002063,0.000413,23.325991,27.788776,-1.000000,-1.000000,-1.000000
482149740.618738,-0.073578,0.001816,-1.038925,0.063367,-0.009451,0.000336,0.997993,-0.000264,-0.063322,-0.000336,0.999955,-0.009451,0.063322,0.009454,0.997948,0.063322,0.009451,-0.997948,-0.210692,-0.006522,-0.039588,0.002223,-0.001580,-0.001379,23.325991,27.788776,-1.000000,-1.000000,-1.000000
482149740.628609,-0.026779,-0.019012,-1.003815,0.063348,-0.009493,0.000339,0.997994,-0.000263,-0.063303,-0.000339,0.999955,-0.009493,0.063302,0.009495,0.997949,0.063303,0.009493,-0.997949,-0.116281,-0.024126,-0.028830,-0.007640,-0.002701,0.001648,23.321526,27.784309,-1.000000,-1.000000,-1.000000
482149740.637930,0.106873,-0.001068,-1.050415,0.063348,-0.009493,0.000339,0.997994,-0.000263,-0.063303,-0.000339,0.999955,-0.009493,0.063302,0.009495,0.997949,0.063303,0.009493,-0.997949,-0.116281,-0.024126,-0.028830,-0.007640,-0.002701,0.001648,23.321526,27.784309,-1.000000,-1.000000,-1.000000
482149740.648705,0.146439,-0.002228,-1.017929,0.063308,-0.009582,0.000302,0.997997,-0.000305,-0.063263,-0.000301,0.999954,-0.009581,0.063263,0.009581,0.997951,0.063263,0.009581,-0.997951,-0.090042,-0.028594,-0.005864,-0.005830,-0.001607,-0.008847,23.321526,27.784309,-1.000000,-1.000000,-1.000000
482149740.658748,0.108566,-0.010330,-0.993866,0.063265,-0.009618,0.000245,0.998000,-0.000363,-0.063220,-0.000245,0.999954,-0.009618,0.063221,0.009614,0.997953,0.063220,0.009618,-0.997953,-0.089999,-0.028630,-0.005861,-0.001131,-0.005188,-0.006205,23.321526,27.784309,-1.000000,-1.000000,-1.000000
482149740.668702,0.113892,0.005142,-1.031647,0.063265,-0.009618,0.000245,0.998000,-0.000363,-0.063220,-0.000245,0.999954,-0.009618,0.063221,0.009614,0.997953,0.063220,0.009618,-0.997953,-0.089999,-0.028630,-0.005861,-0.001131,-0.005188,-0.006205,23.321526,27.784309,-1.000000,-1.000000,-1.000000
482149740.678804,-0.063309,-0.012650,-1.016769,0.063231,-0.009673,0.000224,0.998002,-0.000388,-0.063186,-0.000224,0.999953,-0.009673,0.063187,0.009668,0.997955,0.063186,0.009673,-0.997955,0.083253,-0.011901,-0.019974,-0.003681,-0.006350,-0.003972,23.317266,27.780052,-1.000000,-1.000000,-1.000000
482149740.688685,-0.183945,-0.006454,-1.038651,0.063216,-0.009742,0.000190,0.998003,-0.000426,-0.063171,-0.000190,0.999952,-0.009742,0.063172,0.009735,0.997955,0.063171,0.009742,-0.997955,0.045395,-0.020073,0.004089,-0.010930,-0.001545,-0.004413,23.317266,27.780052,-1.000000,-1.000000,-1.000000
482149740.698620,-0.090271,-0.014084,-1.028061,0.063144,-0.009925,0.000186,0.998007,-0.000440,-0.063099,-0.000186,0.999951,-0.009925,0.063100,0.009917,0.997958,0.063099,0.009925,-0.997958,0.050793,-0.004783,-0.033689,-0.010962,-0.005148,-0.003197,23.317266,27.780052,-1.000000,-1.000000,-1.000000
482149740.708685,-0.103683,0.001373,-1.046555,0.063144,-0.009925,0.000186,0.998007,-0.000440,-0.063099,-0.000186,0.999951,-0.009925,0.063100,0.009917,0.997958,0.063099,0.009925,-0.997958,0.050793,-0.004783,-0.033689,-0.010962,-0.005148,-0.003197,23.317266,27.780052,-1.000000,-1.000000,-1.000000
482149740.718637,-0.103683,0.001373,-1.046555,0.063168,-0.009933,0.000172,0.998006,-0.000455,-0.063122,-0.000172,0.999951,-0.009933,0.063124,0.009924,0.997956,0.063122,0.009933,-0.997956,-0.126431,-0.022582,-0.018813,0.002322,0.003151,-0.002617,23.317266,27.780052,-1.000000,-1.000000,-1.000000
482149740.728763,-0.021103,-0.015106,-1.016159,0.063117,-0.010093,0.000168,0.998009,-0.000469,-0.063072,-0.000168,0.999949,-0.010093,0.063073,0.010083,0.997958,0.063072,0.010093,-0.997958,-0.153343,-0.024177,-0.030103,-0.007876,-0.000304,0.006298,23.314646,27.777431,-1.000000,-1.000000,-1.000000
482149740.738673,0.114639,-0.004745,-1.031464,0.063140,-0.010062,0.000148,0.998007,-0.000487,-0.063095,-0.000148,0.999949,-0.010062,0.063097,0.010051,0.997957,0.063095,0.010062,-0.997957,-0.166779,-0.008689,-0.048598,0.006146,0.003104,-0.005942,23.314646,27.777431,-1.000000,-1.000000,-1.000000
482149740.748661,0.229141,-0.012177,-1.024506,0.063140,-0.010062,0.000148,0.998007,-0.000487,-0.063095,-0.000148,0.999949,-0.010062,0.063097,0.010051,0.997957,0.063095,0.010062,-0.997957,-0.166779,-0.008689,-0.048598,0.006146,0.003104,-0.005942,23.314646,27.777431,-1.000000,-1.000000,-1.000000
482149740.758626,0.176666,-0.009750,-1.016998,0.063079,-0.010116,0.000176,0.998011,-0.000462,-0.063034,-0.000176,0.999949,-0.010116,0.063035,0.010107,0.997960,0.063034,0.010116,-0.997960,0.051605,-0.014862,-0.033504,-0.002843,-0.002744,0.003067,23.314646,27.777431,-1.000000,-1.000000,-1.000000
482149740.768713,0.148148,-0.004135,-1.013901,0.063004,-0.010108,0.000157,0.998016,-0.000480,-0.062959,-0.000157,0.999949,-0.010107,0.062960,0.010097,0.997965,0.062959,0.010107,-0.997965,0.051681,-0.014853,-0.033499,-0.002304,-0.011183,-0.006191,23.314646,27.777431,-1.000000,-1.000000,-1.000000
482149740.778675,-0.075302,-0.011978,-1.031082,0.063004,-0.010108,0.000157,0.998016,-0.000480,-0.062959,-0.000157,0.999949,-0.010107,0.062960,0.010097,0.997965,0.062959,0.010107,-0.997965,0.051681,-0.014853,-0.033499,-0.002304,-0.011183,-0.006191,23.314646,27.777431,-1.000000,-1.000000,-1.000000
482149740.788682,-0.162079,-0.007217,-1.043137,0.062997,-0.010195,0.000200,0.998016,-0.000442,-0.062953,-0.000200,0.999948,-0.010195,0.062954,0.010187,0.997964,0.062953,0.010195,-0.997964,0.113714,-0.019945,-0.019034,-0.006201,0.004391,-0.001901,23.310085,27.772869,-1.000000,-1.000000,-1.000000
