Timestamp,Accel_X,Accel_Y,Accel_Z,Roll,Pitch,Yaw,RM11,RM12,RM13,RM21,RM22,RM23,RM31,RM32,RM33,GravAcc_X,GravAcc_Y,GravAcc_Z,UserAcc_X,UserAcc_Y,UserAcc_Z,RotRate_X,RotRate_Y,RotRate_Z,MagHeading,TrueHeading,HeadingAccuracy,Course,Speed
482148604.472643,0.038788,-0.006622,-1.029160,-0.003772,0.000997,-0.016105,0.999863,-0.016108,0.003772,0.016104,0.999870,0.000997,-0.003788,-0.000936,0.999992,-0.003772,-0.000997,-0.999992,0.085330,-0.002024,-0.018883,0.004972,-0.000917,0.001083,23.891056,28.353840,-1.000000,-1.000000,-1.000000
482148604.479202,0.036652,-0.001617,-1.023544,-0.003772,0.000997,-0.016105,0.999863,-0.016108,0.003772,0.016104,0.999870,0.000997,-0.003788,-0.000936,0.999992,-0.003772,-0.000997,-0.999992,0.085330,-0.002024,-0.018883,0.004972,-0.000917,0.001083,23.891056,28.353840,-1.000000,-1.000000,-1.000000
482148604.489597,0.036652,-0.001617,-1.023544,-0.003772,0.000997,-0.016105,0.999863,-0.016108,0.003772,0.016104,0.999870,0.000997,-0.003788,-0.000936,0.999992,-0.003772,-0.000997,-0.999992,0.085330,-0.002024,-0.018883,0.004972,-0.000917,0.001083,23.891056,28.353840,-1.000000,-1.000000,-1.000000
482148604.499795,0.041656,-0.004578,-1.027084,-0.003772,0.000997,-0.016105,0.999863,-0.016108,0.003772,0.016104,0.999870,0.000997,-0.003788,-0.000936,0.999992,-0.003772,-0.000997,-0.999992,0.085330,-0.002024,-0.018883,0.004972,-0.000917,0.001083,23.891056,28.353840,-1.000000,-1.000000,-1.000000
482148604.509945,0.043350,-0.005508,-1.022110,-0.003772,0.000997,-0.016105,0.999863,-0.016108,0.003772,0.016104,0.999870,0.000997,-0.003788,-0.000936,0.999992,-0.003772,-0.000997,-0.999992,0.085330,-0.002024,-0.018883,0.004972,-0.000917,0.001083,23.891056,28.353840,-1.000000,-1.000000,-1.000000
482148604.519871,0.043472,-0.004532,-1.024063,-0.003772,0.000997,-0.016105,0.999863,-0.016108,0.003772,0.016104,0.999870,0.000997,-0.003788,-0.000936,0.999992,-0.003772,-0.000997,-0.999992,0.085330,-0.002024,-0.018883,0.004972,-0.000917,0.001083,23.891056,28.353840,-1.000000,-1.000000,-1.000000
482148604.529047,0.038620,-0.004608,-1.025330,-0.003772,0.000997,-0.016105,0.999863,-0.016108,0.003772,0.016104,0.999870,0.000997,-0.003788,-0.000936,0.999992,-0.003772,-0.000997,-0.999992,0.085330,-0.002024,-0.018883,0.004972,-0.000917,0.001083,23.891056,28.353840,-1.000000,-1.000000,-1.000000
482148604.539876,0.038620,-0.004608,-1.025330,-0.003772,0.000997,-0.016105,0.999863,-0.016108,0.003772,0.016104,0.999870,0.000997,-0.003788,-0.000936,0.999992,-0.003772,-0.000997,-0.999992,0.085330,-0.002024,-0.018883,0.004972,-0.000917,0.001083,23.891056,28.353840,-1.000000,-1.000000,-1.000000
482148604.549872,0.037415,-0.003555,-1.020554,-0.003772,0.000997,-0.016105,0.999863,-0.016108,0.003772,0.016104,0.999870,0.000997,-0.003788,-0.000936,0.999992,-0.003772,-0.000997,-0.999992,0.085330,-0.002024,-0.018883,0.004972,-0.000917,0.001083,23.891056,28.353840,-1.000000,-1.000000,-1.000000
482148604.559863,0.038773,-0.004623,-1.028214,-0.003772,0.000997,-0.016105,0.999863,-0.016108,0.003772,0.016104,0.999870,0.000997,-0.003788,-0.000936,0.999992,-0.003772,-0.000997,-0.999992,0.085330,-0.002024,-0.018883,0.004972,-0.000917,0.001083,23.891056,28.353840,-1.000000,-1.000000,-1.000000
482148604.569938,0.038589,-0.010559,-1.027176,-0.003772,0.000997,-0.016105,0.999863,-0.016108,0.003772,0.016104,0.999870,0.000997,-0.003788,-0.000936,0.999992,-0.003772,-0.000997,-0.999992,0.085330,-0.002024,-0.018883,0.004972,-0.000917,0.001083,23.891056,28.353840,-1.000000,-1.000000,-1.000000
482148604.579952,0.035507,-0.003601,-1.021637,-0.003772,0.000997,-0.016105,0.999863,-0.016108,0.003772,0.016104,0.999870,0.000997,-0.003788,-0.000936,0.999992,-0.003772,-0.000997,-0.999992,0.085330,-0.002024,-0.018883,0.004972,-0.000917,0.001083,23.891056,28.353840,-1.000000,-1.000000,-1.000000
482148604.588949,0.038452,-0.009537,-1.024292,-0.003772,0.000997,-0.016105,0.999863,-0.016108,0.003772,0.016104,0.999870,0.000997,-0.003788,-0.000936,0.999992,-0.003772,-0.000997,-0.999992,0.085330,-0.002024,-0.018883,0.004972,-0.000917,0.001083,23.891056,28.353840,-1.000000,-1.000000,-1.000000
482148604.599872,0.040283,-0.008499,-1.021286,-0.003772,0.000997,-0.016105,0.999863,-0.016108,0.003772,0.016104,0.999870,0.000997,-0.003788,-0.000936,0.999992,-0.003772,-0.000997,-0.999992,0.085330,-0.002024,-0.018883,0.004972,-0.000917,0.001083,23.891056,28.353840,-1.000000,-1.000000,-1.000000
482148604.609868,0.037552,-0.010544,-1.026276,-0.003772,0.000997,-0.016105,0.999863,-0.016108,0.003772,0.016104,0.999870,0.000997,-0.003788,-0.000936,0.999992,-0.003772,-0.000997,-0.999992,0.085330,-0.002024,-0.018883,0.004972,-0.000917,0.001083,23.891056,28.353840,-1.000000,-1.000000,-1.000000
482148604.619793,0.036682,-0.006607,-1.026382,-0.003772,0.000997,-0.016105,0.999863,-0.016108,0.003772,0.016104,0.999870,0.000997,-0.003788,-0.000936,0.999992,-0.003772,-0.000997,-0.999992,0.085330,-0.002024,-0.018883,0.004972,-0.000917,0.001083,23.891056,28.353840,-1.000000,-1.000000,-1.000000
482148604.629212,0.036682,-0.006607,-1.026382,-0.003772,0.000997,-0.016105,0.999863,-0.016108,0.003772,0.016104,0.999870,0.000997,-0.003788,-0.000936,0.999992,-0.003772,-0.000997,-0.999992,0.085330,-0.002024,-0.018883,0.004972,-0.000917,0.001083,23.891056,28.353840,-1.000000,-1.000000,-1.000000
482148604.639443,0.042297,-0.006485,-1.021179,-0.003772,0.000997,-0.016105,0.999863,-0.016108,0.003772,0.016104,0.999870,0.000997,-0.003788,-0.000936,0.999992,-0.003772,-0.000997,-0.999992,0.085330,-0.002024,-0.018883,0.004972,-0.000917,0.001083,23.891056,28.353840,-1.000000,-1.000000,-1.000000
482148604.649930,0.041656,-0.004578,-1.027084,-0.003772,0.000997,-0.016105,0.999863,-0.016108,0.003772,0.016104,0.999870,0.000997,-0.003788,-0.000936,0.999992,-0.003772,-0.000997,-0.999992,0.085330,-0.002024,-0.018883,0.004972,-0.000917,0.001083,23.891056,28.353840,-1.000000,-1.000000,-1.000000
482148604.660131,0.038651,-0.001617,-1.024384,-0.003772,0.000997,-0.016105,0.999863,-0.016108,0.003772,0.016104,0.999870,0.000997,-0.003788,-0.000936,0.999992,-0.003772,-0.000997,-0.999992,0.085330,-0.002024,-0.018883,0.004972,-0.000917,0.001083,23.891056,28.353840,-1.000000,-1.000000,-1.000000
482148604.669951,0.039581,-0.007553,-1.026199,-0.003772,0.000997,-0.016105,0.999863,-0.016108,0.003772,0.016104,0.999870,0.000997,-0.003788,-0.000936,0.999992,-0.003772,-0.000997,-0.999992,0.085330,-0.002024,-0.018883,0.004972,-0.000917,0.001083,23.891056,28.353840,-1.000000,-1.000000,-1.000000
482148604.679703,0.039474,-0.007538,-1.024261,-0.003772,0.000997,-0.016105,0.999863,-0.016108,0.003772,0.016104,0.999870,0.000997,-0.003788,-0.000936,0.999992,-0.003772,-0.000997,-0.999992,0.085330,-0.002024,-0.018883,0.004972,-0.000917,0.001083,23.891056,28.353840,-1.000000,-1.000000,-1.000000
482148604.689873,0.038391,-0.010513,-1.023315,-0.003772,0.000997,-0.016105,0.999863,-0.016108,0.003772,0.016104,0.999870,0.000997,-0.003788,-0.000936,0.999992,-0.003772,-0.000997,-0.999992,0.085330,-0.002024,-0.018883,0.004972,-0.000917,0.001083,23.891056,28.353840,-1.000000,-1.000000,-1.000000
482148604.699983,0.041504,-0.006546,-1.025131,-0.003772,0.000997,-0.016105,0.999863,-0.016108,0.003772,0.016104,0.999870,0.000997,-0.003788,-0.000936,0.999992,-0.003772,-0.000997,-0.999992,0.085330,-0.002024,-0.018883,0.004972,-0.000917,0.001083,23.891056,28.353840,-1.000000,-1.000000,-1.000000
482148604.710163,0.041489,-0.005539,-1.024170,-0.003772,0.000997,-0.016105,0.999863,-0.016108,0.003772,0.016104,0.999870,0.000997,-0.003788,-0.000936,0.999992,-0.003772,-0.000997,-0.999992,0.085330,-0.002024,-0.018883,0.004972,-0.000917,0.001083,23.891056,28.353840,-1.000000,-1.000000,-1.000000
482148604.719879,0.040588,-0.010529,-1.028030,-0.003772,0.000997,-0.016105,0.999863,-0.016108,0.003772,0.016104,0.999870,0.000997,-0.003788,-0.000936,0.999992,-0.003772,-0.000997,-0.999992,0.085330,-0.002024,-0.018883,0.004972,-0.000917,0.001083,23.891056,28.353840,-1.000000,-1.000000,-1.000000
482148604.729904,0.037811,-0.003632,-1.028290,-0.003772,0.000997,-0.016105,0.999863,-0.016108,0.003772,0.016104,0.999870,0.000997,-0.003788,-0.000936,0.999992,-0.003772,-0.000997,-0.999992,0.085330,-0.002024,-0.018883,0.004972,-0.000917,0.001083,23.891056,28.353840,-1.000000,-1.000000,-1.000000
482148604.739841,0.041275,-0.007477,-1.021240,-0.003772,0.000997,-0.016105,0.999863,-0.016108,0.003772,0.016104,0.999870,0.000997,-0.003788,-0.000936,0.999992,-0.003772,-0.000997,-0.999992,0.085330,-0.002024,-0.018883,0.004972,-0.000917,0.001083,23.891056,28.353840,-1.000000,-1.000000,-1.000000
482148604.749824,0.039658,-0.004593,-1.026230,-0.003772,0.000997,-0.016105,0.999863,-0.016108,0.003772,0.016104,0.999870,0.000997,-0.003788,-0.000936,0.999992,-0.003772,-0.000997,-0.999992,0.085330,-0.002024,-0.018883,0.004972,-0.000917,0.001083,23.891056,28.353840,-1.000000,-1.000000,-1.000000
482148604.759845,0.039658,-0.004593,-1.026230,-0.003772,0.000997,-0.016105,0.999863,-0.016108,0.003772,0.016104,0.999870,0.000997,-0.003788,-0.000936,0.999992,-0.003772,-0.000997,-0.999992,0.085330,-0.002024,-0.018883,0.004972,-0.000917,0.001083,23.891056,28.353840,-1.000000,-1.000000,-1.000000
482148604.770070,0.040527,-0.006561,-1.025192,-0.003772,0.000997,-0.016105,0.999863,-0.016108,0.003772,0.016104,0.999870,0.000997,-0.003788,-0.000936,0.999992,-0.003772,-0.000997,-0.999992,0.085330,-0.002024,-0.018883,0.004972,-0.000917,0.001083,23.891056,28.353840,-1.000000,-1.000000,-1.000000
482148604.779780,0.035507,-0.003601,-1.021637,-0.003772,0.000997,-0.016105,0.999863,-0.016108,0.003772,0.016104,0.999870,0.000997,-0.003788,-0.000936,0.999992,-0.003772,-0.000997,-0.999992,0.085330,-0.002024,-0.018883,0.004972,-0.000917,0.001083,23.891056,28.353840,-1.000000,-1.000000,-1.000000
482148604.789243,0.039352,-0.006531,-1.021347,-0.003772,0.000997,-0.016105,0.999863,-0.016108,0.003772,0.016104,0.999870,0.000997,-0.003788,-0.000936,0.999992,-0.003772,-0.000997,-0.999992,0.085330,-0.002024,-0.018883,0.004972,-0.000917,0.001083,23.891056,28.353840,-1.000000,-1.000000,-1.000000
482148604.799862,0.038391,-0.010513,-1.023315,-0.003772,0.000997,-0.016105,0.999863,-0.016108,0.003772,0.016104,0.999870,0.000997,-0.003788,-0.000936,0.999992,-0.003772,-0.000997,-0.999992,0.085330,-0.002024,-0.018883,0.004972,-0.000917,0.001083,23.891056,28.353840,-1.000000,-1.000000,-1.000000
482148604.808981,0.035873,-0.005661,-1.029358,-0.003772,0.000997,-0.016105,0.999863,-0.016108,0.003772,0.016104,0.999870,0.000997,-0.003788,-0.000936,0.999992,-0.003772,-0.000997,-0.999992,0.085330,-0.002024,-0.018883,0.004972,-0.000917,0.001083,23.891056,28.353840,-1.000000,-1.000000,-1.000000
482148604.819889,0.036484,-0.008560,-1.023468,-0.003772,0.000997,-0.016105,0.999863,-0.016108,0.003772,0.016104,0.999870,0.000997,-0.003788,-0.000936,0.999992,-0.003772,-0.000997,-0.999992,0.085330,-0.002024,-0.018883,0.004972,-0.000917,0.001083,23.891056,28.353840,-1.000000,-1.000000,-1.000000
482148604.829857,0.037613,-0.005600,-1.025375,-0.003772,0.000997,-0.016105,0.999863,-0.016108,0.003772,0.016104,0.999870,0.000997,-0.003788,-0.000936,0.999992,-0.003772,-0.000997,-0.999992,0.085330,-0.002024,-0.018883,0.004972,-0.000917,0.001083,23.891056,28.353840,-1.000000,-1.000000,-1.000000
482148604.839697,0.039383,-0.005539,-1.021362,-0.003772,0.000997,-0.016105,0.999863,-0.016108,0.003772,0.016104,0.999870,0.000997,-0.003788,-0.000936,0.999992,-0.003772,-0.000997,-0.999992,0.085330,-0.002024,-0.018883,0.004972,-0.000917,0.001083,23.891056,28.353840,-1.000000,-1.000000,-1.000000
482148604.849859,0.036652,-0.003616,-1.024490,-0.003772,0.000997,-0.016105,0.999863,-0.016108,0.003772,0.016104,0.999870,0.000997,-0.003788,-0.000936,0.999992,-0.003772,-0.000997,-0.999992,0.085330,-0.002024,-0.018883,0.004972,-0.000917,0.001083,23.891056,28.353840,-1.000000,-1.000000,-1.000000
482148604.859866,0.041672,-0.002579,-1.026138,-0.003772,0.000997,-0.016105,0.999863,-0.016108,0.003772,0.016104,0.999870,0.000997,-0.003788,-0.000936,0.999992,-0.003772,-0.000997,-0.999992,0.085330,-0.002024,-0.018883,0.004972,-0.000917,0.001083,23.891056,28.353840,-1.000000,-1.000000,-1.000000
482148604.870037,0.043259,-0.005478,-1.020172,-0.003772,0.000997,-0.016105,0.999863,-0.016108,0.003772,0.016104,0.999870,0.000997,-0.003788,-0.000936,0.999992,-0.003772,-0.000997,-0.999992,0.085330,-0.002024,-0.018883,0.004972,-0.000917,0.001083,23.891056,28.353840,-1.000000,-1.000000,-1.000000
482148604.879858,0.038559,-0.003586,-1.023407,-0.003772,0.000997,-0.016105,0.999863,-0.016108,0.003772,0.016104,0.999870,0.000997,-0.003788,-0.000936,0.999992,-0.003772,-0.000997,-0.999992,0.085330,-0.002024,-0.018883,0.004972,-0.000917,0.001083,23.891056,28.353840,-1.000000,-1.000000,-1.000000
482148604.889856,0.038177,-0.012451,-1.020386,-0.003772,0.000997,-0.016105,0.999863,-0.016108,0.003772,0.016104,0.999870,0.000997,-0.003788,-0.000936,0.999992,-0.003772,-0.000997,-0.999992,0.085330,-0.002024,-0.018883,0.004972,-0.000917,0.001083,23.891056,28.353840,-1.000000,-1.000000,-1.000000
482148604.899017,0.038177,-0.012451,-1.020386,-0.003772,0.000997,-0.016105,0.999863,-0.016108,0.003772,0.016104,0.999870,0.000997,-0.003788,-0.000936,0.999992,-0.003772,-0.000997,-0.999992,0.085330,-0.002024,-0.018883,0.004972,-0.000917,0.001083,23.891056,28.353840,-1.000000,-1.000000,-1.000000
482148604.909258,0.040405,-0.007507,-1.023254,-0.003772,0.000997,-0.016105,0.999863,-0.016108,0.003772,0.016104,0.999870,0.000997,-0.003788,-0.000936,0.999992,-0.003772,-0.000997,-0.999992,0.085330,-0.002024,-0.018883,0.004972,-0.000917,0.001083,23.891056,28.353840,-1.000000,-1.000000,-1.000000
482148604.919961,0.038620,-0.004608,-1.025330,-0.003772,0.000997,-0.016105,0.999863,-0.016108,0.003772,0.016104,0.999870,0.000997,-0.003788,-0.000936,0.999992,-0.003772,-0.000997,-0.999992,0.085330,-0.002024,-0.018883,0.004972,-0.000917,0.001083,23.891056,28.353840,-1.000000,-1.000000,-1.000000
482148604.929818,0.039581,-0.005585,-1.025253,-0.003772,0.000997,-0.016105,0.999863,-0.016108,0.003772,0.016104,0.999870,0.000997,-0.003788,-0.000936,0.999992,-0.003772,-0.000997,-0.999992,0.085330,-0.002024,-0.018883,0.004972,-0.000917,0.001083,23.891056,28.353840,-1.000000,-1.000000,-1.000000
482148604.939878,0.039429,-0.001556,-1.020447,-0.003772,0.000997,-0.016105,0.999863,-0.016108,0.003772,0.016104,0.999870,0.000997,-0.003788,-0.000936,0.999992,-0.003772,-0.000997,-0.999992,0.085330,-0.002024,-0.018883,0.004972,-0.000917,0.001083,23.891056,28.353840,-1.000000,-1.000000,-1.000000
482148604.948963,0.036072,-0.003708,-1.032288,-0.003772,0.000997,-0.016105,0.999863,-0.016108,0.003772,0.016104,0.999870,0.000997,-0.003788,-0.000936,0.999992,-0.003772,-0.000997,-0.999992,0.085330,-0.002024,-0.018883,0.004972,-0.000917,0.001083,23.891056,28.353840,-1.000000,-1.000000,-1.000000
482148604.959883,0.040253,-0.007477,-1.020340,-0.003772,0.000997,-0.016105,0.999863,-0.016108,0.003772,0.016104,0.999870,0.000997,-0.003788,-0.000936,0.999992,-0.003772,-0.000997,-0.999992,0.085330,-0.002024,-0.018883,0.004972,-0.000917,0.001083,23.891056,28.353840,-1.000000,-1.000000,-1.000000
482148604.969870,0.038528,-0.006577,-1.024323,-0.003772,0.000997,-0.016105,0.999863,-0.016108,0.003772,0.016104,0.999870,0.000997,-0.003788,-0.000936,0.999992,-0.003772,-0.000997,-0.999992,0.085330,-0.002024,-0.018883,0.004972,-0.000917,0.001083,23.891056,28.353840,-1.000000,-1.000000,-1.000000
482148604.979922,0.037659,-0.003616,-1.025406,-0.003772,0.000997,-0.016105,0.999863,-0.016108,0.003772,0.016104,0.999870,0.000997,-0.003788,-0.000936,0.999992,-0.003772,-0.000997,-0.999992,0.085330,-0.002024,-0.018883,0.004972,-0.000917,0.001083,23.891056,28.353840,-1.000000,-1.000000,-1.000000
482148604.989879,0.043564,-0.005539,-1.025986,-0.003772,0.000997,-0.016105,0.999863,-0.016108,0.003772,0.016104,0.999870,0.000997,-0.003788,-0.000936,0.999992,-0.003772,-0.000997,-0.999992,0.085330,-0.002024,-0.018883,0.004972,-0.000917,0.001083,23.891056,28.353840,-1.000000,-1.000000,-1.000000
482148604.999845,0.036469,-0.004578,-1.021561,-0.003772,0.000997,-0.016105,0.999863,-0.016108,0.003772,0.016104,0.999870,0.000997,-0.003788,-0.000936,0.999992,-0.003772,-0.000997,-0.999992,0.085330,-0.002024,-0.018883,0.004972,-0.000917,0.001083,23.891056,28.353840,-1.000000,-1.000000,-1.000000
482148605.008913,0.038681,-0.000641,-1.024399,-0.003772,0.000997,-0.016105,0.999863,-0.016108,0.003772,0.016104,0.999870,0.000997,-0.003788,-0.000936,0.999992,-0.003772,-0.000997,-0.999992,0.085330,-0.002024,-0.018883,0.004972,-0.000917,0.001083,23.891056,28.353840,-1.000000,-1.000000,-1.000000
482148605.019848,0.042526,-0.005539,-1.025085,-0.003772,0.000997,-0.016105,0.999863,-0.016108,0.003772,0.016104,0.999870,0.000997,-0.003788,-0.000936,0.999992,-0.003772,-0.000997,-0.999992,0.085330,-0.002024,-0.018883,0.004972,-0.000917,0.001083,23.891056,28.353840,-1.000000,-1.000000,-1.000000
482148605.029239,0.042526,-0.005539,-1.025085,-0.003772,0.000997,-0.016105,0.999863,-0.016108,0.003772,0.016104,0.999870,0.000997,-0.003788,-0.000936,0.999992,-0.003772,-0.000997,-0.999992,0.085330,-0.002024,-0.018883,0.004972,-0.000917,0.001083,23.891056,28.353840,-1.000000,-1.000000,-1.000000
482148605.039870,0.038651,-0.001617,-1.024384,-0.003772,0.000997,-0.016105,0.999863,-0.016108,0.003772,0.016104,0.999870,0.000997,-0.003788,-0.000936,0.999992,-0.003772,-0.000997,-0.999992,0.085330,-0.002024,-0.018883,0.004972,-0.000917,0.001083,23.891056,28.353840,-1.000000,-1.000000,-1.000000
482148605.049854,0.038345,-0.007523,-1.021408,-0.003772,0.000997,-0.016105,0.999863,-0.016108,0.003772,0.016104,0.999870,0.000997,-0.003788,-0.000936,0.999992,-0.003772,-0.000997,-0.999992,0.085330,-0.002024,-0.018883,0.004972,-0.000917,0.001083,23.891056,28.353840,-1.000000,-1.000000,-1.000000
482148605.060037,0.043457,-0.005524,-1.024048,-0.003772,0.000997,-0.016105,0.999863,-0.016108,0.003772,0.016104,0.999870,0.000997,-0.003788,-0.000936,0.999992,-0.003772,-0.000997,-0.999992,0.085330,-0.002024,-0.018883,0.004972,-0.000917,0.001083,23.891056,28.353840,-1.000000,-1.000000,-1.000000
482148605.069898,0.039307,-0.010498,-1.022278,-0.003772,0.000997,-0.016105,0.999863,-0.016108,0.003772,0.016104,0.999870,0.000997,-0.003788,-0.000936,0.999992,-0.003772,-0.000997,-0.999992,0.085330,-0.002024,-0.018883,0.004972,-0.000917,0.001083,23.891056,28.353840,-1.000000,-1.000000,-1.000000
482148605.079919,0.036636,-0.008591,-1.026367,-0.003772,0.000997,-0.016105,0.999863,-0.016108,0.003772,0.016104,0.999870,0.000997,-0.003788,-0.000936,0.999992,-0.003772,-0.000997,-0.999992,0.085330,-0.002024,-0.018883,0.004972,-0.000917,0.001083,23.891056,28.353840,-1.000000,-1.000000,-1.000000
482148605.089076,0.038498,-0.009552,-1.025269,-0.003772,0.000997,-0.016105,0.999863,-0.016108,0.003772,0.016104,0.999870,0.000997,-0.003788,-0.000936,0.999992,-0.003772,-0.000997,-0.999992,0.085330,-0.002024,-0.018883,0.004972,-0.000917,0.001083,23.891056,28.353840,-1.000000,-1.000000,-1.000000
482148605.099022,0.039581,-0.003586,-1.024307,-0.003772,0.000997,-0.016105,0.999863,-0.016108,0.003772,0.016104,0.999870,0.000997,-0.003788,-0.000936,0.999992,-0.003772,-0.000997,-0.999992,0.085330,-0.002024,-0.018883,0.004972,-0.000917,0.001083,23.891056,28.353840,-1.000000,-1.000000,-1.000000
482148605.109856,0.041687,-0.005569,-1.028030,-0.003772,0.000997,-0.016105,0.999863,-0.016108,0.003772,0.016104,0.999870,0.000997,-0.003788,-0.000936,0.999992,-0.003772,-0.000997,-0.999992,0.085330,-0.002024,-0.018883,0.004972,-0.000917,0.001083,23.891056,28.353840,-1.000000,-1.000000,-1.000000
482148605.120223,0.039429,-0.007523,-1.023300,-0.003772,0.000997,-0.016105,0.999863,-0.016108,0.003772,0.016104,0.999870,0.000997,-0.003788,-0.000936,0.999992,-0.003772,-0.000997,-0.999992,0.085330,-0.002024,-0.018883,0.004972,-0.000917,0.001083,23.891056,28.353840,-1.000000,-1.000000,-1.000000
482148605.130105,0.038528,-0.004578,-1.023392,-0.003772,0.000997,-0.016105,0.999863,-0.016108,0.003772,0.016104,0.999870,0.000997,-0.003788,-0.000936,0.999992,-0.003772,-0.000997,-0.999992,0.085330,-0.002024,-0.018883,0.004972,-0.000917,0.001083,23.891056,28.353840,-1.000000,-1.000000,-1.000000
482148605.139353,0.038528,-0.004578,-1.023392,-0.003772,0.000997,-0.016105,0.999863,-0.016108,0.003772,0.016104,0.999870,0.000997,-0.003788,-0.000936,0.999992,-0.003772,-0.000997,-0.999992,0.085330,-0.002024,-0.018883,0.004972,-0.000917,0.001083,23.891056,28.353840,-1.000000,-1.000000,-1.000000
482148605.149972,0.039536,-0.005569,-1.024277,-0.003772,0.000997,-0.016105,0.999863,-0.016108,0.003772,0.016104,0.999870,0.000997,-0.003788,-0.000936,0.999992,-0.003772,-0.000997,-0.999992,0.085330,-0.002024,-0.018883,0.004972,-0.000917,0.001083,23.891056,28.353840,-1.000000,-1.000000,-1.000000
482148605.159072,0.044556,-0.004532,-1.025940,-0.003772,0.000997,-0.016105,0.999863,-0.016108,0.003772,0.016104,0.999870,0.000997,-0.003788,-0.000936,0.999992,-0.003772,-0.000997,-0.999992,0.085330,-0.002024,-0.018883,0.004972,-0.000917,0.001083,23.891056,28.353840,-1.000000,-1.000000,-1.000000
482148605.170193,0.038483,-0.002579,-1.021454,-0.003772,0.000997,-0.016105,0.999863,-0.016108,0.003772,0.016104,0.999870,0.000997,-0.003788,-0.000936,0.999992,-0.003772,-0.000997,-0.999992,0.085330,-0.002024,-0.018883,0.004972,-0.000917,0.001083,23.891056,28.353840,-1.000000,-1.000000,-1.000000
482148605.179928,0.040527,-0.004562,-1.024246,-0.003772,0.000997,-0.016105,0.999863,-0.016108,0.003772,0.016104,0.999870,0.000997,-0.003788,-0.000936,0.999992,-0.003772,-0.000997,-0.999992,0.085330,-0.002024,-0.018883,0.004972,-0.000917,0.001083,23.891056,28.353840,-1.000000,-1.000000,-1.000000
482148605.189978,0.038788,-0.002640,-1.027267,-0.003772,0.000997,-0.016105,0.999863,-0.016108,0.003772,0.016104,0.999870,0.000997,-0.003788,-0.000936,0.999992,-0.003772,-0.000997,-0.999992,0.085330,-0.002024,-0.018883,0.004972,-0.000917,0.001083,23.891056,28.353840,-1.000000,-1.000000,-1.000000
482148605.200074,0.036606,-0.003601,-1.023529,-0.003772,0.000997,-0.016105,0.999863,-0.016108,0.003772,0.016104,0.999870,0.000997,-0.003788,-0.000936,0.999992,-0.003772,-0.000997,-0.999992,0.085330,-0.002024,-0.018883,0.004972,-0.000917,0.001083,23.891056,28.353840,-1.000000,-1.000000,-1.000000
482148605.210314,0.035629,-0.006622,-1.025482,-0.003772,0.000997,-0.016105,0.999863,-0.016108,0.003772,0.016104,0.999870,0.000997,-0.003788,-0.000936,0.999992,-0.003772,-0.000997,-0.999992,0.085330,-0.002024,-0.018883,0.004972,-0.000917,0.001083,23.891056,28.353840,-1.000000,-1.000000,-1.000000
482148605.220422,0.042358,-0.010468,-1.024048,0.037683,0.006418,-0.000122,0.999290,0.000120,-0.037673,0.000122,0.999979,0.006418,0.037673,-0.006418,0.999269,0.037673,-0.006418,-0.999269,0.001115,0.003778,-0.027998,-0.002557,0.002602,-0.000342,23.891056,28.353840,-1.000000,-1.000000,-1.000000
482148605.229957,0.035568,-0.011551,-1.026398,0.037478,0.006032,-0.000156,0.999298,0.000070,-0.037468,0.000156,0.999982,0.006032,0.037468,-0.006034,0.999280,0.037468,-0.006032,-0.999280,-0.000863,0.002431,-0.024249,-0.004906,0.002602,-0.001639,23.891056,28.353840,-1.000000,-1.000000,-1.000000
482148605.239997,0.037872,-0.003647,-1.029266,0.037478,0.006032,-0.000156,0.999298,0.000070,-0.037468,0.000156,0.999982,0.006032,0.037468,-0.006034,0.999280,0.037468,-0.006032,-0.999280,-0.000863,0.002431,-0.024249,-0.004906,0.002602,-0.001639,23.891056,28.353840,-1.000000,-1.000000,-1.000000
482148605.250055,0.037872,-0.003647,-1.029266,0.037657,0.006446,-0.000075,0.999291,0.000168,-0.037647,0.000075,0.999979,0.006446,0.037648,-0.006444,0.999270,0.037647,-0.006446,-0.999270,0.004711,-0.004021,-0.024778,-0.005173,0.003838,0.003030,23.891056,28.353840,-1.000000,-1.000000,-1.000000
482148605.259297,0.037598,-0.008575,-1.026306,0.037403,0.006828,-0.000005,0.999301,0.000250,-0.037393,0.000005,0.999977,0.006828,0.037394,-0.006823,0.999277,0.037393,-0.006828,-0.999277,-0.001825,-0.004723,-0.027120,-0.001614,0.000252,0.004437,23.891056,28.353840,-1.000000,-1.000000,-1.000000
482148605.269973,0.038406,-0.009521,-1.023331,0.037299,0.006518,-0.000046,0.999304,0.000197,-0.037290,0.000046,0.999979,0.006518,0.037290,-0.006515,0.999283,0.037290,-0.006518,-0.999283,0.000583,0.002871,-0.029983,-0.008594,-0.000954,-0.000609,23.891056,28.353840,-1.000000,-1.000000,-1.000000
482148605.280414,0.043411,-0.005508,-1.023087,0.037299,0.006518,-0.000046,0.999304,0.000197,-0.037290,0.000046,0.999979,0.006518,0.037290,-0.006515,0.999283,0.037290,-0.006518,-0.999283,0.000583,0.002871,-0.029983,-0.008594,-0.000954,-0.000609,23.891056,28.353840,-1.000000,-1.000000,-1.000000
482148605.290057,0.044724,-0.010529,-1.031662,0.037234,0.006614,-0.000058,0.999307,0.000188,-0.037224,0.000058,0.999978,0.006614,0.037225,-0.006612,0.999285,0.037224,-0.006614,-0.999285,0.000373,-0.001961,-0.027021,-0.006312,0.002637,0.001812,23.891056,28.353840,-1.000000,-1.000000,-1.000000
482148605.299317,0.040710,-0.005585,-1.028091,0.037590,0.006695,-0.000016,0.999294,0.000236,-0.037581,0.000015,0.999978,0.006695,0.037581,-0.006691,0.999271,0.037581,-0.006695,-0.999271,0.005831,0.001187,-0.023815,-0.000071,0.002584,-0.001388,23.891056,28.353840,-1.000000,-1.000000,-1.000000
482148605.309918,0.038330,-0.008530,-1.021393,0.037590,0.006695,-0.000016,0.999294,0.000236,-0.037581,0.000015,0.999978,0.006695,0.037581,-0.006691,0.999271,0.037581,-0.006695,-0.999271,0.005831,0.001187,-0.023815,-0.000071,0.002584,-0.001388,23.891056,28.353840,-1.000000,-1.000000,-1.000000
482148605.319973,0.039459,-0.008545,-1.024246,0.037620,0.006671,0.000004,0.999292,0.000255,-0.037610,-0.000004,0.999978,0.006671,0.037611,-0.006666,0.999270,0.037610,-0.006671,-0.999270,0.005801,0.001163,-0.023816,-0.002755,0.003830,0.003155,23.891056,28.353840,-1.000000,-1.000000,-1.000000
482148605.329923,0.038757,-0.003632,-1.027267,0.038055,0.006724,0.000061,0.999276,0.000317,-0.038045,-0.000061,0.999977,0.006724,0.038046,-0.006716,0.999253,0.038045,-0.006724,-0.999253,0.002665,0.001139,-0.028838,-0.006443,0.000282,0.004186,23.891056,28.353840,-1.000000,-1.000000,-1.000000
482148605.339973,0.039307,-0.010498,-1.022278,0.038021,0.006851,0.000082,0.999277,0.000342,-0.038011,-0.000082,0.999977,0.006851,0.038013,-0.006843,0.999254,0.038011,-0.006851,-0.999254,0.000319,-0.001679,-0.022139,0.005771,-0.000984,0.002488,23.891056,28.353840,-1.000000,-1.000000,-1.000000
482148605.350047,0.039307,-0.010498,-1.022278,0.038021,0.006851,0.000082,0.999277,0.000342,-0.038011,-0.000082,0.999977,0.006851,0.038013,-0.006843,0.999254,0.038011,-0.006851,-0.999254,0.000319,-0.001679,-0.022139,0.005771,-0.000984,0.002488,23.891056,28.353840,-1.000000,-1.000000,-1.000000
482148605.359936,0.041611,-0.004562,-1.026123,0.038013,0.006658,0.000121,0.999278,0.000374,-0.038003,-0.000121,0.999978,0.006658,0.038005,-0.006648,0.999255,0.038003,-0.006658,-0.999255,0.000754,0.003026,-0.028012,-0.007249,-0.002164,-0.002873,23.891056,28.353840,-1.000000,-1.000000,-1.000000
482148605.369936,0.038727,-0.006607,-1.028183,0.037999,0.006606,0.000135,0.999278,0.000385,-0.037989,-0.000135,0.999978,0.006606,0.037990,-0.006596,0.999256,0.037989,-0.006606,-0.999256,0.000769,0.002975,-0.028011,-0.005102,0.000255,0.001906,23.891056,28.353840,-1.000000,-1.000000,-1.000000
482148605.379933,0.040512,-0.005554,-1.024231,0.038173,0.006581,0.000145,0.999271,0.000396,-0.038163,-0.000145,0.999978,0.006581,0.038165,-0.006571,0.999250,0.038163,-0.006581,-0.999250,0.003448,0.002019,-0.026873,-0.001410,-0.000960,0.000940,23.891056,28.353840,-1.000000,-1.000000,-1.000000
482148605.389873,0.042633,-0.005554,-1.027008,0.038173,0.006581,0.000145,0.999271,0.000396,-0.038163,-0.000145,0.999978,0.006581,0.038165,-0.006571,0.999250,0.038163,-0.006581,-0.999250,0.003448,0.002019,-0.026873,-0.001410,-0.000960,0.000940,23.891056,28.353840,-1.000000,-1.000000,-1.000000
482148605.399924,0.038452,-0.005569,-1.022400,0.038108,0.006572,0.000176,0.999274,0.000427,-0.038098,-0.000176,0.999978,0.006572,0.038100,-0.006560,0.999252,0.038098,-0.006572,-0.999252,0.000629,-0.000035,-0.028931,0.001008,-0.008133,0.001161,23.891056,28.353840,-1.000000,-1.000000,-1.000000
482148605.409966,0.037781,-0.004623,-1.028275,0.038286,0.006429,0.000139,0.999267,0.000385,-0.038275,-0.000139,0.999979,0.006429,0.038277,-0.006419,0.999247,0.038275,-0.006429,-0.999247,0.004358,0.000875,-0.027762,-0.004633,-0.005776,-0.006213,23.891056,28.353840,-1.000000,-1.000000,-1.000000
482148605.420011,0.036774,-0.004639,-1.027374,0.038286,0.006429,0.000139,0.999267,0.000385,-0.038275,-0.000139,0.999979,0.006429,0.038277,-0.006419,0.999247,0.038275,-0.006429,-0.999247,0.004358,0.000875,-0.027762,-0.004633,-0.005776,-0.006213,23.891056,28.353840,-1.000000,-1.000000,-1.000000
482148605.429915,0.040787,-0.004608,-1.029083,0.038281,0.006343,0.000164,0.999267,0.000406,-0.038271,-0.000164,0.999980,0.006343,0.038273,-0.006332,0.999247,0.038271,-0.006343,-0.999247,0.000181,0.000773,-0.023153,-0.007723,0.001500,0.005278,23.891056,28.353840,-1.000000,-1.000000,-1.000000
482148605.439925,0.039444,-0.004562,-1.022354,0.038256,0.006157,0.000234,0.999268,0.000470,-0.038246,-0.000234,0.999981,0.006157,0.038248,-0.006144,0.999249,0.038246,-0.006157,-0.999249,-0.000465,0.001534,-0.029025,-0.003969,0.003848,0.003092,23.891056,28.353840,-1.000000,-1.000000,-1.000000
482148605.449924,0.040787,-0.004608,-1.029083,0.038157,0.006041,0.000297,0.999272,0.000527,-0.038147,-0.000297,0.999982,0.006041,0.038150,-0.006026,0.999254,0.038147,-0.006041,-0.999254,-0.001374,0.001403,-0.028120,-0.005245,-0.003302,0.004296,23.891056,28.353840,-1.000000,-1.000000,-1.000000
482148605.459623,0.040787,-0.004608,-1.029083,0.038157,0.006041,0.000297,0.999272,0.000527,-0.038147,-0.000297,0.999982,0.006041,0.038150,-0.006026,0.999254,0.038147,-0.006041,-0.999254,-0.001374,0.001403,-0.028120,-0.005245,-0.003302,0.004296,23.891056,28.353840,-1.000000,-1.000000,-1.000000
482148605.470057,0.038116,-0.008484,-1.017517,0.038240,0.005891,0.000347,0.999269,0.000572,-0.038230,-0.000347,0.999983,0.005891,0.038233,-0.005874,0.999252,0.038230,-0.005891,-0.999252,0.001214,0.001329,-0.023103,-0.002970,0.000293,0.006716,23.891056,28.353840,-1.000000,-1.000000,-1.000000
482148605.479753,0.042374,-0.003510,-1.021225,0.038214,0.005830,0.000280,0.999270,0.000503,-0.038205,-0.000280,0.999983,0.005830,0.038207,-0.005815,0.999253,0.038205,-0.005830,-0.999253,0.001239,0.001268,-0.023101,-0.005721,-0.004603,-0.008635,23.891056,28.353840,-1.000000,-1.000000,-1.000000
482148605.489907,0.040314,-0.011459,-1.023209,0.038283,0.005786,0.000286,0.999267,0.000507,-0.038273,-0.000286,0.999983,0.005786,0.038276,-0.005771,0.999251,0.038273,-0.005786,-0.999251,-0.000157,-0.002698,-0.018267,-0.000217,0.001424,0.000970,23.891056,28.353840,-1.000000,-1.000000,-1.000000
482148605.499350,0.039536,-0.005569,-1.024277,0.038283,0.005786,0.000286,0.999267,0.000507,-0.038273,-0.000286,0.999983,0.005786,0.038276,-0.005771,0.999251,0.038273,-0.005786,-0.999251,-0.000157,-0.002698,-0.018267,-0.000217,0.001424,0.000970,23.891056,28.353840,-1.000000,-1.000000,-1.000000
482148605.509936,0.045425,-0.004501,-1.023941,0.038432,0.005656,0.000255,0.999261,0.000472,-0.038422,-0.000255,0.999984,0.005656,0.038424,-0.005642,0.999246,0.038422,-0.005656,-0.999246,0.003952,0.002146,-0.021979,-0.004920,0.005011,-0.001672,23.891056,28.353840,-1.000000,-1.000000,-1.000000
482148605.519905,0.038528,-0.004578,-1.023392,0.038451,0.005721,0.000278,0.999261,0.000497,-0.038441,-0.000278,0.999984,0.005721,0.038443,-0.005706,0.999245,0.038441,-0.005721,-0.999245,0.001094,0.000151,-0.025032,-0.007659,0.001496,0.004107,23.891056,28.353840,-1.000000,-1.000000,-1.000000
482148605.529993,0.041656,-0.006561,-1.028015,0.038451,0.005721,0.000278,0.999261,0.000497,-0.038441,-0.000278,0.999984,0.005721,0.038443,-0.005706,0.999245,0.038441,-0.005721,-0.999245,0.001094,0.000151,-0.025032,-0.007659,0.001496,0.004107,23.891056,28.353840,-1.000000,-1.000000,-1.000000
482148605.540009,0.038757,-0.003632,-1.027267,0.038641,0.005682,0.000318,0.999253,0.000537,-0.038631,-0.000318,0.999984,0.005682,0.038633,-0.005665,0.999237,0.038631,-0.005682,-0.999237,0.006795,0.001180,-0.024704,-0.000146,0.000243,-0.000186,23.891056,28.353840,-1.000000,-1.000000,-1.000000
482148605.549966,0.038742,-0.008606,-1.029144,0.038641,0.005575,0.000335,0.999253,0.000550,-0.038631,-0.000335,0.999984,0.005575,0.038633,-0.005558,0.999238,0.038631,-0.005575,-0.999238,-0.000102,0.000997,-0.024154,-0.004848,0.005014,-0.002843,23.891056,28.353840,-1.000000,-1.000000,-1.000000
482148605.559854,0.038681,-0.002625,-1.025345,0.038706,0.005576,0.000317,0.999251,0.000532,-0.038696,-0.000317,0.999984,0.005576,0.038698,-0.005560,0.999235,0.038696,-0.005576,-0.999235,0.002961,-0.000985,-0.028780,-0.002496,0.001439,-0.001498,23.891056,28.353840,-1.000000,-1.000000,-1.000000
482148605.569987,0.038681,-0.002625,-1.025345,0.038706,0.005576,0.000317,0.999251,0.000532,-0.038696,-0.000317,0.999984,0.005576,0.038698,-0.005560,0.999235,0.038696,-0.005576,-0.999235,0.002961,-0.000985,-0.028780,-0.002496,0.001439,-0.001498,23.891056,28.353840,-1.000000,-1.000000,-1.000000
482148605.579906,0.038605,-0.003601,-1.024368,0.038670,0.005563,0.000351,0.999252,0.000566,-0.038660,-0.000351,0.999984,0.005563,0.038663,-0.005546,0.999237,0.038660,-0.005563,-0.999237,0.000082,-0.003043,-0.029907,0.000861,0.003847,0.003343,23.891056,28.353840,-1.000000,-1.000000,-1.000000
482148605.589864,0.038712,-0.005615,-1.027237,0.038678,0.005550,0.000381,0.999252,0.000596,-0.038668,-0.000381,0.999985,0.005550,0.038671,-0.005531,0.999237,0.038668,-0.005550,-0.999237,0.000074,-0.003056,-0.029908,-0.004238,0.001522,0.007809,23.891056,28.353840,-1.000000,-1.000000,-1.000000
482148605.599927,0.040405,-0.007507,-1.023254,0.038636,0.005337,0.000377,0.999254,0.000583,-0.038626,-0.000377,0.999986,0.005337,0.038629,-0.005318,0.999240,0.038626,-0.005337,-0.999240,-0.000022,0.001736,-0.025129,-0.004855,0.000234,-0.002780,23.891056,28.353840,-1.000000,-1.000000,-1.000000
482148605.609867,0.036728,-0.006622,-1.027344,0.038636,0.005337,0.000377,0.999254,0.000583,-0.038626,-0.000377,0.999986,0.005337,0.038629,-0.005318,0.999240,0.038626,-0.005337,-0.999240,-0.000022,0.001736,-0.025129,-0.004855,0.000234,-0.002780,23.891056,28.353840,-1.000000,-1.000000,-1.000000
482148605.619921,0.043259,-0.005478,-1.020172,0.038606,0.005305,0.000381,0.999255,0.000585,-0.038595,-0.000381,0.999986,0.005305,0.038598,-0.005287,0.999241,0.038595,-0.005305,-0.999241,0.000116,-0.000310,-0.027996,-0.003782,0.001441,-0.000391,23.891056,28.353840,-1.000000,-1.000000,-1.000000
482148605.629923,0.038452,-0.003571,-1.021454,0.038596,0.005405,0.000453,0.999255,0.000661,-0.038586,-0.000453,0.999985,0.005405,0.038589,-0.005384,0.999241,0.038586,-0.005405,-0.999241,-0.001858,-0.001217,-0.028103,0.002132,0.001430,0.002267,23.891056,28.353840,-1.000000,-1.000000,-1.000000
482148605.640000,0.042206,-0.010437,-1.021133,0.038596,0.005405,0.000453,0.999255,0.000661,-0.038586,-0.000453,0.999985,0.005405,0.038589,-0.005384,0.999241,0.038586,-0.005405,-0.999241,-0.001858,-0.001217,-0.028103,0.002132,0.001430,0.002267,23.891056,28.353840,-1.000000,-1.000000,-1.000000
482148605.649927,0.039536,-0.005569,-1.024277,0.038604,0.005370,0.000467,0.999255,0.000674,-0.038594,-0.000467,0.999985,0.005370,0.038597,-0.005348,0.999241,0.038594,-0.005370,-0.999241,-0.001866,-0.001252,-0.028103,-0.006189,0.001445,-0.000516,23.891056,28.353840,-1.000000,-1.000000,-1.000000
482148605.659886,0.036560,-0.005585,-1.023499,0.038716,0.005229,0.000472,0.999250,0.000674,-0.038706,-0.000472,0.999986,0.005229,0.038709,-0.005207,0.999237,0.038706,-0.005229,-0.999237,-0.000254,0.001658,-0.022217,-0.001297,0.003809,-0.001467,23.891056,28.353840,-1.000000,-1.000000,-1.000000
482148605.669832,0.036560,-0.005585,-1.023499,0.038811,0.005330,0.000475,0.999247,0.000681,-0.038801,-0.000475,0.999986,0.005330,0.038804,-0.005307,0.999233,0.038801,-0.005330,-0.999233,0.003405,-0.005107,-0.021901,-0.003697,0.003827,-0.001593,23.891056,28.353840,-1.000000,-1.000000,-1.000000
482148605.680063,0.040436,-0.008530,-1.024200,0.038811,0.005330,0.000475,0.999247,0.000681,-0.038801,-0.000475,0.999986,0.005330,0.038804,-0.005307,0.999233,0.038801,-0.005330,-0.999233,0.003405,-0.005107,-0.021901,-0.003697,0.003827,-0.001593,23.891056,28.353840,-1.000000,-1.000000,-1.000000
482148605.689750,0.039474,-0.007538,-1.024261,0.038743,0.005268,0.000487,0.999249,0.000691,-0.038733,-0.000487,0.999986,0.005268,0.038736,-0.005246,0.999236,0.038733,-0.005268,-0.999236,-0.002173,-0.000316,-0.024263,-0.001211,-0.002172,-0.002559,23.891056,28.353840,-1.000000,-1.000000,-1.000000
482148605.699944,0.035385,-0.008560,-1.021576,0.038729,0.005222,0.000534,0.999250,0.000735,-0.038719,-0.000534,0.999986,0.005222,0.038722,-0.005197,0.999237,0.038719,-0.005222,-0.999237,-0.002159,-0.000363,-0.024262,-0.004164,0.001503,0.006638,23.891056,28.353840,-1.000000,-1.000000,-1.000000
482148605.709943,0.042603,-0.006546,-1.026993,0.038730,0.005288,0.000562,0.999250,0.000766,-0.038720,-0.000562,0.999986,0.005288,0.038724,-0.005262,0.999236,0.038720,-0.005288,-0.999236,0.000754,-0.002250,-0.025025,-0.001329,-0.000956,-0.000232,23.891056,28.353840,-1.000000,-1.000000,-1.000000
482148605.719945,0.039352,-0.006531,-1.021347,0.038730,0.005288,0.000562,0.999250,0.000766,-0.038720,-0.000562,0.999986,0.005288,0.038724,-0.005262,0.999236,0.038720,-0.005288,-0.999236,0.000754,-0.002250,-0.025025,-0.001329,-0.000956,-0.000232,23.891056,28.353840,-1.000000,-1.000000,-1.000000
482148605.729930,0.041489,-0.003540,-1.023239,0.038627,0.005360,0.000561,0.999254,0.000767,-0.038617,-0.000561,0.999985,0.005360,0.038621,-0.005335,0.999240,0.038617,-0.005360,-0.999240,-0.003232,-0.003200,-0.022336,-0.002459,-0.000975,-0.001465,23.891056,28.353840,-1.000000,-1.000000,-1.000000
482148605.739939,0.039398,-0.004547,-1.021378,0.038699,0.005381,0.000611,0.999251,0.000818,-0.038689,-0.000611,0.999985,0.005381,0.038693,-0.005353,0.999237,0.038689,-0.005381,-0.999237,0.000663,-0.001150,-0.022110,-0.005337,0.000311,0.006592,23.891056,28.353840,-1.000000,-1.000000,-1.000000
482148605.749906,0.040482,-0.008545,-1.025177,0.038699,0.005381,0.000611,0.999251,0.000818,-0.038689,-0.000611,0.999985,0.005381,0.038693,-0.005353,0.999237,0.038689,-0.005381,-0.999237,0.000663,-0.001150,-0.022110,-0.005337,0.000311,0.006592,23.891056,28.353840,-1.000000,-1.000000,-1.000000
482148605.759931,0.038559,-0.005585,-1.024338,0.038702,0.005313,0.000635,0.999251,0.000840,-0.038692,-0.000635,0.999986,0.005313,0.038696,-0.005284,0.999237,0.038692,-0.005313,-0.999237,0.000661,-0.001218,-0.022110,-0.005002,-0.000935,0.000752,23.891056,28.353840,-1.000000,-1.000000,-1.000000
482148605.769894,0.037384,-0.006546,-1.021469,0.038764,0.005236,0.000696,0.999248,0.000898,-0.038754,-0.000696,0.999986,0.005236,0.038758,-0.005205,0.999235,0.038754,-0.005236,-0.999235,0.000644,0.000689,-0.022142,-0.003939,0.005055,0.003077,23.891056,28.353840,-1.000000,-1.000000,-1.000000
482148605.779973,0.037384,-0.006546,-1.021469,0.038784,0.005267,0.000715,0.999248,0.000919,-0.038774,-0.000715,0.999986,0.005267,0.038778,-0.005235,0.999234,0.038774,-0.005267,-0.999234,0.001708,-0.003278,-0.025943,-0.006141,-0.000932,-0.000482,23.891056,28.353840,-1.000000,-1.000000,-1.000000
482148605.789994,0.037491,-0.008560,-1.024368,0.038784,0.005267,0.000715,0.999248,0.000919,-0.038774,-0.000715,0.999986,0.005267,0.038778,-0.005235,0.999234,0.038774,-0.005267,-0.999234,0.001708,-0.003278,-0.025943,-0.006141,-0.000932,-0.000482,23.891056,28.353840,-1.000000,-1.000000,-1.000000
482148605.800011,0.036682,-0.006607,-1.026382,0.038738,0.005243,0.000706,0.999249,0.000908,-0.038728,-0.000706,0.999986,0.005242,0.038732,-0.005211,0.999236,0.038728,-0.005242,-0.999236,-0.001344,-0.001304,-0.022233,-0.003721,0.001432,-0.000388,23.891056,28.353840,-1.000000,-1.000000,-1.000000
482148605.810190,0.041901,-0.003616,-1.030975,0.038719,0.005191,0.000741,0.999250,0.000942,-0.038709,-0.000741,0.999986,0.005191,0.038713,-0.005158,0.999237,0.038709,-0.005191,-0.999237,-0.001325,-0.001355,-0.022232,-0.008820,-0.002086,0.004094,23.891056,28.353840,-1.000000,-1.000000,-1.000000
482148605.820250,0.036469,-0.004578,-1.021561,0.038647,0.005222,0.000794,0.999253,0.000995,-0.038637,-0.000794,0.999986,0.005222,0.038642,-0.005187,0.999240,0.038637,-0.005222,-0.999240,-0.001146,-0.003338,-0.025129,-0.002836,-0.000915,0.005563,23.891056,28.353840,-1.000000,-1.000000,-1.000000
482148605.829953,0.039383,-0.005539,-1.021362,0.038589,0.005212,0.000786,0.999255,0.000987,-0.038579,-0.000786,0.999986,0.005212,0.038584,-0.005177,0.999242,0.038579,-0.005212,-0.999242,-0.001897,-0.001395,-0.027140,-0.004779,0.001397,-0.002793,23.891056,28.353840,-1.000000,-1.000000,-1.000000
482148605.839948,0.036835,-0.006638,-1.029282,0.038673,0.005137,0.000762,0.999252,0.000960,-0.038663,-0.000762,0.999987,0.005137,0.038667,-0.005104,0.999239,0.038663,-0.005137,-0.999239,0.003238,0.001521,-0.031736,-0.005993,0.002603,-0.002872,23.891056,28.353840,-1.000000,-1.000000,-1.000000
482148605.849993,0.039352,-0.006531,-1.021347,0.038614,0.005071,0.000812,0.999254,0.001007,-0.038604,-0.000812,0.999987,0.005071,0.038609,-0.005036,0.999242,0.038604,-0.005071,-0.999242,0.000779,-0.000468,-0.022121,-0.006329,0.000257,0.003016,23.891056,28.353840,-1.000000,-1.000000,-1.000000
482148605.859870,0.038696,-0.001633,-1.025360,0.038614,0.005071,0.000812,0.999254,0.001007,-0.038604,-0.000812,0.999987,0.005071,0.038609,-0.005036,0.999242,0.038604,-0.005071,-0.999242,0.000779,-0.000468,-0.022121,-0.006329,0.000257,0.003016,23.891056,28.353840,-1.000000,-1.000000,-1.000000
482148605.869938,0.040771,-0.005600,-1.029068,0.038611,0.005020,0.000821,0.999254,0.001014,-0.038601,-0.000821,0.999987,0.005020,0.038606,-0.004984,0.999242,0.038601,-0.005020,-0.999242,0.000782,-0.000519,-0.022120,-0.001430,-0.002161,0.002129,23.891056,28.353840,-1.000000,-1.000000,-1.000000
482148605.879925,0.036499,-0.007553,-1.023483,0.038524,0.005028,0.000812,0.999258,0.001005,-0.038514,-0.000812,0.999987,0.005028,0.038519,-0.004993,0.999245,0.038514,-0.005028,-0.999245,0.000838,-0.001503,-0.022102,-0.006318,0.000246,0.003017,23.891056,28.353840,-1.000000,-1.000000,-1.000000
482148605.889644,0.036499,-0.007553,-1.023483,0.038497,0.004829,0.000873,0.999259,0.001059,-0.038487,-0.000873,0.999988,0.004829,0.038492,-0.004792,0.999247,0.038487,-0.004829,-0.999247,0.000209,0.003196,-0.026113,-0.012572,-0.000894,0.006232,23.891056,28.353840,-1.000000,-1.000000,-1.000000
482148605.900126,0.038483,-0.006561,-1.023361,0.038497,0.004829,0.000873,0.999259,0.001059,-0.038487,-0.000873,0.999988,0.004829,0.038492,-0.004792,0.999247,0.038487,-0.004829,-0.999247,0.000209,0.003196,-0.026113,-0.012572,-0.000894,0.006232,23.891056,28.353840,-1.000000,-1.000000,-1.000000
482148605.909897,0.041412,-0.002533,-1.021286,0.038507,0.004863,0.000853,0.999258,0.001040,-0.038497,-0.000853,0.999988,0.004863,0.038502,-0.004827,0.999247,0.038497,-0.004863,-0.999247,-0.001998,-0.002690,-0.024236,-0.000212,0.000199,0.002160,23.891056,28.353840,-1.000000,-1.000000,-1.000000
482148605.919247,0.040604,-0.007553,-1.027115,0.038493,0.004811,0.000937,0.999259,0.001122,-0.038483,-0.000937,0.999988,0.004811,0.038488,-0.004771,0.999248,0.038483,-0.004811,-0.999248,-0.001984,-0.002742,-0.024236,-0.005378,-0.002116,0.007797,23.891056,28.353840,-1.000000,-1.000000,-1.000000
482148605.930097,0.039429,-0.005554,-1.022339,0.038493,0.004811,0.000937,0.999259,0.001122,-0.038483,-0.000937,0.999988,0.004811,0.038488,-0.004771,0.999248,0.038483,-0.004811,-0.999248,-0.001984,-0.002742,-0.024236,-0.005378,-0.002116,0.007797,23.891056,28.353840,-1.000000,-1.000000,-1.000000
482148605.939898,0.038467,-0.004578,-1.022415,0.038528,0.004764,0.000976,0.999257,0.001159,-0.038519,-0.000976,0.999988,0.004764,0.038524,-0.004723,0.999247,0.038519,-0.004764,-0.999247,0.002894,0.002231,-0.022039,0.004550,-0.002194,0.003614,23.891056,28.353840,-1.000000,-1.000000,-1.000000
482148605.949926,0.037445,-0.008545,-1.023407,0.038531,0.004833,0.001034,0.999257,0.001220,-0.038521,-0.001034,0.999988,0.004833,0.038527,-0.004789,0.999246,0.038521,-0.004833,-0.999246,0.002083,-0.002720,-0.027869,-0.001614,0.000244,0.005611,23.891056,28.353840,-1.000000,-1.000000,-1.000000
482148605.959959,0.040558,-0.005569,-1.025208,0.038509,0.004761,0.001030,0.999258,0.001213,-0.038499,-0.001030,0.999988,0.004760,0.038505,-0.004717,0.999247,0.038499,-0.004760,-0.999247,-0.000032,0.000183,-0.023168,-0.007384,0.002611,0.000580,23.891056,28.353840,-1.000000,-1.000000,-1.000000
482148605.969301,0.038696,-0.010574,-1.029114,0.038509,0.004761,0.001030,0.999258,0.001213,-0.038499,-0.001030,0.999988,0.004760,0.038505,-0.004717,0.999247,0.038499,-0.004760,-0.999247,-0.000032,0.000183,-0.023168,-0.007384,0.002611,0.000580,23.891056,28.353840,-1.000000,-1.000000,-1.000000
482148605.979949,0.038635,-0.006592,-1.026260,0.038533,0.004721,0.001001,0.999257,0.001182,-0.038523,-0.001001,0.999988,0.004721,0.038528,-0.004679,0.999247,0.038523,-0.004721,-0.999247,-0.000056,0.000144,-0.023169,-0.003426,0.002543,-0.005088,23.891056,28.353840,-1.000000,-1.000000,-1.000000
482148605.989255,0.038635,-0.006592,-1.026260,0.038488,0.004758,0.000965,0.999259,0.001147,-0.038478,-0.000965,0.999988,0.004758,0.038483,-0.004718,0.999248,0.038478,-0.004758,-0.999248,0.002080,-0.000811,-0.025959,-0.002399,-0.003402,-0.001431,23.891056,28.353840,-1.000000,-1.000000,-1.000000
482148605.999987,0.036423,-0.006561,-1.021530,0.038425,0.004845,0.000947,0.999261,0.001132,-0.038415,-0.000947,0.999988,0.004845,0.038420,-0.004805,0.999250,0.038415,-0.004845,-0.999250,0.000281,-0.005730,-0.029864,-0.005997,-0.006972,-0.001571,23.891056,28.353840,-1.000000,-1.000000,-1.000000
482148606.009880,0.037689,-0.004608,-1.026352,0.038425,0.004845,0.000947,0.999261,0.001132,-0.038415,-0.000947,0.999988,0.004845,0.038420,-0.004805,0.999250,0.038415,-0.004845,-0.999250,0.000281,-0.005730,-0.029864,-0.005997,-0.006972,-0.001571,23.891056,28.353840,-1.000000,-1.000000,-1.000000
482148606.019956,0.038361,-0.011490,-1.023315,0.038343,0.004872,0.000911,0.999264,0.001097,-0.038333,-0.000911,0.999988,0.004872,0.038338,-0.004834,0.999253,0.038333,-0.004872,-0.999253,-0.001910,-0.001689,-0.022277,-0.001490,0.003787,0.004395,23.891056,28.353840,-1.000000,-1.000000,-1.000000
482148606.029954,0.038345,-0.001556,-1.018570,0.038372,0.004899,0.000958,0.999263,0.001145,-0.038362,-0.000958,0.999988,0.004899,0.038367,-0.004859,0.999252,0.038362,-0.004899,-0.999252,-0.001939,-0.001662,-0.022278,0.002202,0.002567,0.003427,23.891056,28.353840,-1.000000,-1.000000,-1.000000
482148606.039922,0.039566,-0.008560,-1.026184,0.038372,0.004899,0.000958,0.999263,0.001145,-0.038362,-0.000958,0.999988,0.004899,0.038367,-0.004859,0.999252,0.038362,-0.004899,-0.999252,-0.001939,-0.001662,-0.022278,0.002202,0.002567,0.003427,23.891056,28.353840,-1.000000,-1.000000,-1.000000
482148606.049943,0.042130,-0.004456,-1.017334,0.038323,0.004923,0.000932,0.999265,0.001120,-0.038313,-0.000932,0.999987,0.004923,0.038318,-0.004884,0.999254,0.038313,-0.004923,-0.999254,0.000048,-0.006566,-0.024062,-0.009715,-0.000995,0.000506,23.891056,28.353840,-1.000000,-1.000000,-1.000000
482148606.059547,0.038422,-0.004562,-1.021439,0.038249,0.004791,0.000925,0.999268,0.001108,-0.038239,-0.000925,0.999988,0.004791,0.038244,-0.004752,0.999257,0.038239,-0.004791,-0.999257,0.000106,0.003234,-0.019313,-0.007180,-0.002223,-0.001696,23.891056,28.353840,-1.000000,-1.000000,-1.000000
482148606.069990,0.039505,-0.006561,-1.024261,0.038335,0.004845,0.000894,0.999265,0.001079,-0.038325,-0.000894,0.999988,0.004845,0.038329,-0.004807,0.999254,0.038325,-0.004845,-0.999254,0.003805,0.000390,-0.018080,0.003703,0.001328,-0.001178,23.891056,28.353840,-1.000000,-1.000000,-1.000000
482148606.079888,0.039734,-0.007584,-1.029099,0.038335,0.004845,0.000894,0.999265,0.001079,-0.038325,-0.000894,0.999988,0.004845,0.038329,-0.004807,0.999254,0.038325,-0.004845,-0.999254,0.003805,0.000390,-0.018080,0.003703,0.001328,-0.001178,23.891056,28.353840,-1.000000,-1.000000,-1.000000
482148606.089899,0.037186,-0.008499,-1.018555,0.038352,0.004830,0.000838,0.999264,0.001023,-0.038342,-0.000838,0.999988,0.004830,0.038347,-0.004794,0.999253,0.038342,-0.004830,-0.999253,0.003787,0.000374,-0.018081,-0.003276,0.001317,-0.006240,23.891056,28.353840,-1.000000,-1.000000,-1.000000
482148606.100054,0.037186,-0.008499,-1.018555,0.038349,0.004756,0.000930,0.999264,0.001112,-0.038339,-0.000930,0.999988,0.004756,0.038344,-0.004717,0.999253,0.038339,-0.004756,-0.999253,0.001166,-0.001805,-0.025008,-0.008770,-0.002141,0.005269,23.891056,28.353840,-1.000000,-1.000000,-1.000000
482148606.109934,0.036499,-0.007553,-1.023483,0.038378,0.004794,0.000912,0.999263,0.001095,-0.038368,-0.000912,0.999988,0.004794,0.038373,-0.004755,0.999252,0.038368,-0.004794,-0.999252,0.001366,-0.002790,-0.029846,0.001372,0.006100,-0.002538,23.891056,28.353840,-1.000000,-1.000000,-1.000000
482148606.120015,0.034683,-0.005646,-1.025558,0.038378,0.004794,0.000912,0.999263,0.001095,-0.038368,-0.000912,0.999988,0.004794,0.038373,-0.004755,0.999252,0.038368,-0.004794,-0.999252,0.001366,-0.002790,-0.029846,0.001372,0.006100,-0.002538,23.891056,28.353840,-1.000000,-1.000000,-1.000000
482148606.130206,0.041519,-0.010513,-1.027008,0.038369,0.004924,0.000973,0.999263,0.001161,-0.038359,-0.000973,0.999987,0.004924,0.038364,-0.004883,0.999252,0.038359,-0.004924,-0.999252,-0.001860,-0.002630,-0.024231,0.001201,0.000142,0.001057,23.891056,28.353840,-1.000000,-1.000000,-1.000000
482148606.139927,0.038834,-0.004639,-1.029190,0.038348,0.004929,0.001004,0.999264,0.001192,-0.038338,-0.001004,0.999987,0.004929,0.038344,-0.004887,0.999253,0.038338,-0.004929,-0.999253,-0.001839,-0.002624,-0.024231,-0.002623,0.000189,0.004382,23.891056,28.353840,-1.000000,-1.000000,-1.000000
482148606.149994,0.043427,-0.006516,-1.024033,0.038348,0.004929,0.001004,0.999264,0.001192,-0.038338,-0.001004,0.999987,0.004929,0.038344,-0.004887,0.999253,0.038338,-0.004929,-0.999253,-0.001839,-0.002624,-0.024231,-0.002623,0.000189,0.004382,23.891056,28.353840,-1.000000,-1.000000,-1.000000
482148606.159979,0.037552,-0.007568,-1.025360,0.038356,0.004968,0.000966,0.999264,0.001156,-0.038347,-0.000966,0.999987,0.004968,0.038352,-0.004927,0.999252,0.038347,-0.004968,-0.999252,0.003173,-0.005545,-0.027756,-0.008233,0.003720,-0.003006,23.891056,28.353840,-1.000000,-1.000000,-1.000000
482148606.169946,0.038483,-0.006561,-1.023361,0.038365,0.004931,0.000964,0.999264,0.001152,-0.038355,-0.000964,0.999987,0.004931,0.038360,-0.004890,0.999252,0.038355,-0.004931,-0.999252,0.000479,0.000292,-0.029938,-0.002263,0.001315,-0.001489,23.891056,28.353840,-1.000000,-1.000000,-1.000000
482148606.179943,0.041565,-0.006546,-1.026093,0.038419,0.004931,0.000933,0.999261,0.001122,-0.038409,-0.000933,0.999987,0.004931,0.038414,-0.004891,0.999250,0.038409,-0.004931,-0.999250,0.005017,-0.001585,-0.024783,-0.007354,-0.002184,0.002992,23.891056,28.353840,-1.000000,-1.000000,-1.000000
482148606.190222,0.034500,-0.006607,-1.022629,0.038419,0.004931,0.000933,0.999261,0.001122,-0.038409,-0.000933,0.999987,0.004931,0.038414,-0.004891,0.999250,0.038409,-0.004931,-0.999250,0.005017,-0.001585,-0.024783,-0.007354,-0.002184,0.002992,23.891056,28.353840,-1.000000,-1.000000,-1.000000
482148606.199869,0.034500,-0.006607,-1.022629,0.038369,0.004981,0.000954,0.999263,0.001144,-0.038359,-0.000954,0.999987,0.004981,0.038364,-0.004941,0.999252,0.038359,-0.004981,-0.999252,-0.000807,-0.002588,-0.026108,-0.002443,-0.002224,0.002073,23.891056,28.353840,-1.000000,-1.000000,-1.000000
482148606.209983,0.037506,-0.003586,-1.022491,0.038287,0.005034,0.000973,0.999266,0.001165,-0.038277,-0.000973,0.999987,0.005034,0.038283,-0.004993,0.999254,0.038277,-0.005034,-0.999254,0.003288,-0.001512,-0.026838,0.003745,-0.005844,0.000093,23.891056,28.353840,-1.000000,-1.000000,-1.000000
482148606.219133,0.040680,-0.004593,-1.027145,0.038287,0.005034,0.000973,0.999266,0.001165,-0.038277,-0.000973,0.999987,0.005034,0.038283,-0.004993,0.999254,0.038277,-0.005034,-0.999254,0.003288,-0.001512,-0.026838,0.003745,-0.005844,0.000093,23.891056,28.353840,-1.000000,-1.000000,-1.000000
482148606.229901,0.040466,-0.005539,-1.023270,0.038208,0.005028,0.001003,0.999269,0.001195,-0.038198,-0.001003,0.999987,0.005028,0.038204,-0.004986,0.999258,0.038198,-0.005028,-0.999258,-0.003698,-0.001579,-0.023371,-0.003833,0.001378,0.005477,23.891056,28.353840,-1.000000,-1.000000,-1.000000
482148606.239994,0.034683,-0.007614,-1.026505,0.038234,0.004928,0.001112,0.999268,0.001300,-0.038224,-0.001112,0.999987,0.004928,0.038230,-0.004882,0.999257,0.038224,-0.004928,-0.999257,0.002456,0.000335,-0.027888,-0.005184,-0.000984,0.007788,23.891056,28.353840,-1.000000,-1.000000,-1.000000
482148606.249964,0.034378,-0.007553,-1.020691,0.038224,0.004890,0.001094,0.999269,0.001280,-0.038214,-0.001094,0.999987,0.004890,0.038220,-0.004845,0.999258,0.038214,-0.004890,-0.999258,0.002465,0.000297,-0.027888,-0.005588,-0.001105,-0.006329,23.891056,28.353840,-1.000000,-1.000000,-1.000000
482148606.259896,0.036911,-0.003662,-1.029327,0.038224,0.004890,0.001094,0.999269,0.001280,-0.038214,-0.001094,0.999987,0.004890,0.038220,-0.004845,0.999258,0.038214,-0.004890,-0.999258,0.002465,0.000297,-0.027888,-0.005588,-0.001105,-0.006329,23.891056,28.353840,-1.000000,-1.000000,-1.000000
482148606.269931,0.036453,-0.005569,-1.021545,0.038210,0.004834,0.001072,0.999269,0.001256,-0.038201,-0.001072,0.999988,0.004834,0.038206,-0.004789,0.999258,0.038201,-0.004834,-0.999258,-0.003517,-0.002780,-0.027246,-0.008458,0.001350,0.001712,23.891056,28.353840,-1.000000,-1.000000,-1.000000
482148606.279931,0.040405,-0.007507,-1.023254,0.038104,0.004853,0.001141,0.999273,0.001325,-0.038095,-0.001141,0.999988,0.004853,0.038101,-0.004806,0.999262,0.038095,-0.004853,-0.999262,-0.003717,-0.002701,-0.021429,-0.005088,-0.001034,0.006619,23.891056,28.353840,-1.000000,-1.000000,-1.000000
482148606.289937,0.040192,-0.010452,-1.020294,0.038003,0.004752,0.001207,0.999277,0.001387,-0.037994,-0.001207,0.999988,0.004751,0.038000,-0.004702,0.999267,0.037994,-0.004751,-0.999267,-0.001540,-0.000818,-0.022279,-0.005965,0.001282,0.000667,23.891056,28.353840,-1.000000,-1.000000,-1.000000
482148606.299914,0.037415,-0.005554,-1.021484,0.038003,0.004752,0.001207,0.999277,0.001387,-0.037994,-0.001207,0.999988,0.004751,0.038000,-0.004702,0.999267,0.037994,-0.004751,-0.999267,-0.001540,-0.000818,-0.022279,-0.005965,0.001282,0.000667,23.891056,28.353840,-1.000000,-1.000000,-1.000000
482148606.309866,0.037415,-0.005554,-1.021484,0.037971,0.004703,0.001194,0.999278,0.001372,-0.037961,-0.001194,0.999988,0.004703,0.037967,-0.004654,0.999268,0.037961,-0.004703,-0.999268,-0.001508,-0.000867,-0.022277,-0.003414,-0.003523,-0.001485,23.891056,28.353840,-1.000000,-1.000000,-1.000000
482148606.319997,0.034760,-0.008636,-1.028412,0.038090,0.004892,0.001152,0.999274,0.001338,-0.038080,-0.001152,0.999987,0.004892,0.038086,-0.004845,0.999263,0.038080,-0.004892,-0.999263,0.002111,-0.005560,-0.021031,0.001591,0.003611,-0.003671,23.891056,28.353840,-1.000000,-1.000000,-1.000000
482148606.329880,0.039658,-0.004593,-1.026230,0.038068,0.004850,0.001161,0.999275,0.001344,-0.038059,-0.001161,0.999988,0.004850,0.038065,-0.004803,0.999264,0.038059,-0.004850,-0.999264,-0.000644,-0.000704,-0.022221,-0.008403,-0.001077,0.001747,23.891056,28.353840,-1.000000,-1.000000,-1.000000
482148606.340032,0.039261,-0.010483,-1.021301,0.038068,0.004850,0.001161,0.999275,0.001344,-0.038059,-0.001161,0.999988,0.004850,0.038065,-0.004803,0.999264,0.038059,-0.004850,-0.999264,-0.000644,-0.000704,-0.022221,-0.008403,-0.001077,0.001747,23.891056,28.353840,-1.000000,-1.000000,-1.000000
482148606.349949,0.040359,-0.003525,-1.020386,0.038000,0.004835,0.001194,0.999277,0.001377,-0.037991,-0.001194,0.999988,0.004835,0.037997,-0.004786,0.999266,0.037991,-0.004835,-0.999266,0.001667,0.000242,-0.026963,-0.005972,0.002474,0.001825,23.891056,28.353840,-1.000000,-1.000000,-1.000000
482148606.359957,0.038544,-0.007568,-1.025299,0.038006,0.004792,0.001202,0.999277,0.001384,-0.037997,-0.001202,0.999988,0.004792,0.038003,-0.004743,0.999266,0.037997,-0.004792,-0.999266,0.001661,0.000199,-0.026963,-0.002280,-0.001132,0.000890,23.891056,28.353840,-1.000000,-1.000000,-1.000000
482148606.370080,0.041687,-0.003586,-1.027100,0.038006,0.004792,0.001202,0.999277,0.001384,-0.037997,-0.001202,0.999988,0.004792,0.038003,-0.004743,0.999266,0.037997,-0.004792,-0.999266,0.001661,0.000199,-0.026963,-0.002280,-0.001132,0.000890,23.891056,28.353840,-1.000000,-1.000000,-1.000000
482148606.379982,0.038452,-0.007538,-1.023361,0.038034,0.004918,0.001162,0.999276,0.001348,-0.038024,-0.001162,0.999987,0.004918,0.038031,-0.004870,0.999265,0.038024,-0.004918,-0.999265,0.002335,0.001393,-0.021121,-0.005549,0.001228,-0.005186,23.891056,28.353840,-1.000000,-1.000000,-1.000000
482148606.389929,0.039520,-0.007553,-1.025238,0.038030,0.004924,0.001143,0.999276,0.001330,-0.038020,-0.001143,0.999987,0.004924,0.038026,-0.004877,0.999265,0.038020,-0.004924,-0.999265,0.000523,-0.002644,-0.026034,-0.004529,0.000058,-0.001593,23.891056,28.353840,-1.000000,-1.000000,-1.000000
482148606.399622,0.042603,-0.004547,-1.026062,0.038093,0.004787,0.001191,0.999274,0.001373,-0.038083,-0.001191,0.999988,0.004787,0.038089,-0.004738,0.999263,0.038083,-0.004787,-0.999263,0.000369,-0.002751,-0.024098,-0.009355,0.002476,-0.001876,23.891056,28.353840,-1.000000,-1.000000,-1.000000
482148606.410020,0.034760,-0.006653,-1.027466,0.038093,0.004787,0.001191,0.999274,0.001373,-0.038083,-0.001191,0.999988,0.004787,0.038089,-0.004738,0.999263,0.038083,-0.004787,-0.999263,0.000369,-0.002751,-0.024098,-0.009355,0.002476,-0.001876,23.891056,28.353840,-1.000000,-1.000000,-1.000000
482148606.419806,0.034760,-0.006653,-1.027466,0.038116,0.004727,0.001226,0.999273,0.001405,-0.038106,-0.001226,0.999988,0.004727,0.038112,-0.004677,0.999263,0.038106,-0.004727,-0.999263,0.000346,-0.002811,-0.024099,-0.002376,0.001294,0.003202,23.891056,28.353840,-1.000000,-1.000000,-1.000000
482148606.429970,0.036484,-0.010544,-1.024399,0.038217,0.004733,0.001227,0.999269,0.001407,-0.038207,-0.001227,0.999988,0.004733,0.038213,-0.004683,0.999259,0.038207,-0.004733,-0.999259,0.004395,0.000186,-0.026803,0.002468,0.000100,0.003469,23.891056,28.353840,-1.000000,-1.000000,-1.000000
482148606.440561,0.042297,-0.006485,-1.021179,0.038217,0.004733,0.001227,0.999269,0.001407,-0.038207,-0.001227,0.999988,0.004733,0.038213,-0.004683,0.999259,0.038207,-0.004733,-0.999259,0.004395,0.000186,-0.026803,0.002468,0.000100,0.003469,23.891056,28.353840,-1.000000,-1.000000,-1.000000
482148606.449973,0.040451,-0.007523,-1.024216,0.038098,0.004745,0.001280,0.999273,0.001459,-0.038088,-0.001280,0.999988,0.004745,0.038095,-0.004693,0.999263,0.038088,-0.004745,-0.999263,-0.003329,-0.001908,-0.028203,-0.007184,-0.004657,0.003031,23.891056,28.353840,-1.000000,-1.000000,-1.000000
482148606.459941,0.038422,-0.004562,-1.021439,0.038171,0.004845,0.001329,0.999270,0.001512,-0.038161,-0.001329,0.999987,0.004845,0.038168,-0.004791,0.999260,0.038161,-0.004845,-0.999260,0.004136,-0.001640,-0.021919,-0.004867,-0.001061,0.005453,23.891056,28.353840,-1.000000,-1.000000,-1.000000
482148606.470061,0.039734,-0.003616,-1.027206,0.038166,0.004791,0.001391,0.999271,0.001573,-0.038156,-0.001391,0.999988,0.004791,0.038164,-0.004734,0.999260,0.038156,-0.004791,-0.999260,0.004141,-0.001694,-0.021919,-0.008491,0.000148,0.005248,23.891056,28.353840,-1.000000,-1.000000,-1.000000
482148606.480194,0.040634,-0.008560,-1.028061,0.038166,0.004791,0.001391,0.999271,0.001573,-0.038156,-0.001391,0.999988,0.004791,0.038164,-0.004734,0.999260,0.038156,-0.004791,-0.999260,0.004141,-0.001694,-0.021919,-0.008491,0.000148,0.005248,23.891056,28.353840,-1.000000,-1.000000,-1.000000
482148606.489959,0.037598,-0.002594,-1.023468,0.038200,0.004718,0.001369,0.999269,0.001549,-0.038190,-0.001369,0.999988,0.004718,0.038197,-0.004663,0.999259,0.038190,-0.004718,-0.999259,0.000231,0.000156,-0.022179,-0.006936,-0.001100,-0.000529,23.891056,28.353840,-1.000000,-1.000000,-1.000000
482148606.500041,0.038681,-0.006607,-1.027222,0.038216,0.004673,0.001324,0.999269,0.001502,-0.038207,-0.001324,0.999988,0.004673,0.038213,-0.004619,0.999259,0.038207,-0.004673,-0.999259,0.001527,0.001057,-0.027947,0.000572,0.001217,-0.004869,23.891056,28.353840,-1.000000,-1.000000,-1.000000
482148606.510009,0.035645,-0.002625,-1.023590,0.038223,0.004667,0.001331,0.999268,0.001508,-0.038214,-0.001331,0.999988,0.004667,0.038220,-0.004612,0.999259,0.038214,-0.004667,-0.999259,-0.000616,0.002073,-0.024209,-0.003177,0.000058,-0.002699,23.891056,28.353840,-1.000000,-1.000000,-1.000000
482148606.520191,0.039612,-0.006577,-1.026199,0.038223,0.004667,0.001331,0.999268,0.001508,-0.038214,-0.001331,0.999988,0.004667,0.038220,-0.004612,0.999259,0.038214,-0.004667,-0.999259,-0.000616,0.002073,-0.024209,-0.003177,0.000058,-0.002699,23.891056,28.353840,-1.000000,-1.000000,-1.000000
482148606.530030,0.039612,-0.006577,-1.026199,0.038208,0.004597,0.001345,0.999269,0.001519,-0.038198,-0.001345,0.999989,0.004597,0.038205,-0.004542,0.999260,0.038198,-0.004597,-0.999260,-0.000601,0.002003,-0.024208,-0.008277,0.000121,0.001735,23.891056,28.353840,-1.000000,-1.000000,-1.000000
482148606.539968,0.040924,-0.005432,-1.013519,0.038089,0.004482,0.001341,0.999274,0.001510,-0.038079,-0.001341,0.999989,0.004482,0.038086,-0.004427,0.999265,0.038079,-0.004482,-0.999265,-0.002435,0.001857,-0.024325,-0.003245,-0.002339,-0.001495,23.891056,28.353840,-1.000000,-1.000000,-1.000000
482148606.549910,0.041260,-0.006485,-1.020279,0.038089,0.004482,0.001341,0.999274,0.001510,-0.038079,-0.001341,0.999989,0.004482,0.038086,-0.004427,0.999265,0.038079,-0.004482,-0.999265,-0.002435,0.001857,-0.024325,-0.003245,-0.002339,-0.001495,23.891056,28.353840,-1.000000,-1.000000,-1.000000
482148606.559901,0.036743,-0.001648,-1.025482,0.038133,0.004500,0.001316,0.999272,0.001487,-0.038123,-0.001316,0.999989,0.004500,0.038130,-0.004447,0.999263,0.038123,-0.004500,-0.999263,0.001489,-0.002076,-0.026936,-0.003169,0.002427,-0.002730,23.891056,28.353840,-1.000000,-1.000000,-1.000000
482148606.569910,0.045334,-0.008469,-1.023895,0.038276,0.004446,0.001289,0.999267,0.001458,-0.038266,-0.001289,0.999989,0.004445,0.038272,-0.004393,0.999258,0.038266,-0.004445,-0.999258,0.002994,-0.002039,-0.021021,-0.010468,0.000104,-0.001903,23.891056,28.353840,-1.000000,-1.000000,-1.000000
482148606.580029,0.034561,-0.002625,-1.021698,0.038271,0.004388,0.001254,0.999267,0.001421,-0.038261,-0.001254,0.999990,0.004388,0.038267,-0.004337,0.999258,0.038261,-0.004388,-0.999258,0.002999,-0.002097,-0.021021,-0.007918,0.000073,-0.004120,23.891056,28.353840,-1.000000,-1.000000,-1.000000
482148606.589964,0.037827,-0.005630,-1.029236,0.038271,0.004388,0.001254,0.999267,0.001421,-0.038261,-0.001254,0.999990,0.004388,0.038267,-0.004337,0.999258,0.038261,-0.004388,-0.999258,0.002999,-0.002097,-0.021021,-0.007918,0.000073,-0.004120,23.891056,28.353840,-1.000000,-1.000000,-1.000000
482148606.599938,0.042694,-0.004562,-1.027985,0.038335,0.004359,0.001245,0.999264,0.001411,-0.038325,-0.001245,0.999990,0.004359,0.038331,-0.004308,0.999256,0.038325,-0.004359,-0.999256,0.007009,-0.004110,-0.024639,-0.003281,0.000103,-0.000355,23.891056,28.353840,-1.000000,-1.000000,-1.000000
482148606.609930,0.042404,-0.008499,-1.024078,0.038218,0.004295,0.001216,0.999269,0.001379,-0.038208,-0.001216,0.999990,0.004295,0.038214,-0.004245,0.999261,0.038208,-0.004295,-0.999261,-0.003647,0.001670,-0.022437,-0.001948,-0.002335,-0.002603,23.891056,28.353840,-1.000000,-1.000000,-1.000000
482148606.619996,0.036423,-0.002579,-1.019638,0.038195,0.004242,0.001191,0.999270,0.001352,-0.038185,-0.001191,0.999990,0.004242,0.038191,-0.004194,0.999262,0.038185,-0.004242,-0.999262,0.004509,-0.000320,-0.028723,-0.008181,-0.005848,0.000644,23.891056,28.353840,-1.000000,-1.000000,-1.000000
482148606.629011,0.036423,-0.002579,-1.019638,0.038195,0.004242,0.001191,0.999270,0.001352,-0.038185,-0.001191,0.999990,0.004242,0.038191,-0.004194,0.999262,0.038185,-0.004242,-0.999262,0.004509,-0.000320,-0.028723,-0.008181,-0.005848,0.000644,23.891056,28.353840,-1.000000,-1.000000,-1.000000
482148606.639353,0.036530,-0.008575,-1.024429,0.038240,0.004185,0.001177,0.999268,0.001336,-0.038230,-0.001177,0.999991,0.004185,0.038235,-0.004136,0.999260,0.038230,-0.004185,-0.999260,0.004464,-0.000378,-0.028724,-0.008117,0.007271,-0.000702,23.891056,28.353840,-1.000000,-1.000000,-1.000000
482148606.649690,0.039352,-0.006531,-1.021347,0.038287,0.004112,0.001204,0.999266,0.001360,-0.038277,-0.001204,0.999991,0.004112,0.038282,-0.004062,0.999259,0.038277,-0.004112,-0.999259,-0.001854,0.001533,-0.020379,-0.002131,0.001291,0.000864,23.891056,28.353840,-1.000000,-1.000000,-1.000000
482148606.659890,0.039597,-0.004593,-1.025269,0.038287,0.004112,0.001204,0.999266,0.001360,-0.038277,-0.001204,0.999991,0.004112,0.038282,-0.004062,0.999259,0.038277,-0.004112,-0.999259,-0.001854,0.001533,-0.020379,-0.002131,0.001291,0.000864,23.891056,28.353840,-1.000000,-1.000000,-1.000000
482148606.669955,0.041428,-0.007507,-1.024155,0.038267,0.004128,0.001179,0.999267,0.001336,-0.038257,-0.001179,0.999991,0.004128,0.038262,-0.004080,0.999259,0.038257,-0.004128,-0.999259,-0.001727,-0.004447,-0.025170,-0.004323,0.003642,-0.002807,23.891056,28.353840,-1.000000,-1.000000,-1.000000
482148606.679947,0.036438,-0.001587,-1.019653,0.038297,0.004094,0.001147,0.999266,0.001303,-0.038287,-0.001147,0.999991,0.004094,0.038292,-0.004047,0.999258,0.038287,-0.004094,-0.999258,0.001309,-0.000498,-0.026010,-0.005449,0.001252,-0.004009,23.891056,28.353840,-1.000000,-1.000000,-1.000000
482148606.689933,0.040451,-0.009521,-1.025162,0.038322,0.004119,0.001145,0.999265,0.001302,-0.038313,-0.001145,0.999991,0.004119,0.038318,-0.004072,0.999257,0.038313,-0.004119,-0.999257,0.003115,-0.003388,-0.024897,-0.006705,-0.004689,-0.002820,23.891056,28.353840,-1.000000,-1.000000,-1.000000
482148606.699886,0.037674,-0.005600,-1.026337,0.038322,0.004119,0.001145,0.999265,0.001302,-0.038313,-0.001145,0.999991,0.004119,0.038318,-0.004072,0.999257,0.038313,-0.004119,-0.999257,0.003115,-0.003388,-0.024897,-0.006705,-0.004689,-0.002820,23.891056,28.353840,-1.000000,-1.000000,-1.000000
482148606.709922,0.042755,-0.004578,-1.028961,0.038234,0.004020,0.001147,0.999268,0.001300,-0.038225,-0.001147,0.999991,0.004020,0.038230,-0.003973,0.999261,0.038225,-0.004020,-0.999261,-0.001787,0.002433,-0.020392,0.001601,0.000057,-0.000102,23.891056,28.353840,-1.000000,-1.000000,-1.000000
482148606.719912,0.038574,-0.004593,-1.024353,0.038245,0.004111,0.001188,0.999268,0.001345,-0.038236,-0.001188,0.999991,0.004111,0.038241,-0.004062,0.999260,0.038236,-0.004111,-0.999260,0.002215,-0.005411,-0.025901,-0.001056,0.001310,0.004443,23.891056,28.353840,-1.000000,-1.000000,-1.000000
482148606.730132,0.038544,-0.007568,-1.025299,0.038371,0.004166,0.001205,0.999263,0.001364,-0.038361,-0.001205,0.999991,0.004166,0.038367,-0.004116,0.999255,0.038361,-0.004166,-0.999255,0.004394,-0.000412,-0.029706,-0.000780,0.004857,-0.000290,23.891056,28.353840,-1.000000,-1.000000,-1.000000
482148606.739926,0.040176,-0.006485,-1.018402,0.038371,0.004166,0.001205,0.999263,0.001364,-0.038361,-0.001205,0.999991,0.004166,0.038367,-0.004116,0.999255,0.038361,-0.004166,-0.999255,0.004394,-0.000412,-0.029706,-0.000780,0.004857,-0.000290,23.891056,28.353840,-1.000000,-1.000000,-1.000000
482148606.749882,0.038513,-0.005569,-1.023376,0.038399,0.004122,0.001170,0.999262,0.001327,-0.038389,-0.001170,0.999991,0.004122,0.038394,-0.004074,0.999254,0.038389,-0.004122,-0.999254,0.000185,-0.000471,-0.025099,-0.006817,0.003685,-0.000588,23.891056,28.353840,-1.000000,-1.000000,-1.000000
482148606.760276,0.038513,-0.005569,-1.023376,0.038410,0.004178,0.001263,0.999261,0.001423,-0.038400,-0.001263,0.999990,0.004178,0.038406,-0.004126,0.999254,0.038400,-0.004178,-0.999254,0.000143,-0.003390,-0.026045,-0.002839,0.001410,0.014922,23.891056,28.353840,-1.000000,-1.000000,-1.000000
482148606.769905,0.034531,-0.005615,-1.022644,0.038410,0.004178,0.001263,0.999261,0.001423,-0.038400,-0.001263,0.999990,0.004178,0.038406,-0.004126,0.999254,0.038400,-0.004178,-0.999254,0.000143,-0.003390,-0.026045,-0.002839,0.001410,0.014922,23.891056,28.353840,-1.000000,-1.000000,-1.000000
482148606.779869,0.041260,-0.010468,-1.022171,0.038433,0.004208,0.001283,0.999260,0.001443,-0.038424,-0.001283,0.999990,0.004208,0.038429,-0.004155,0.999253,0.038424,-0.004208,-0.999253,0.001753,-0.002277,-0.019149,-0.003230,-0.001093,0.000837,23.891056,28.353840,-1.000000,-1.000000,-1.000000
482148606.789930,0.038559,-0.003586,-1.023407,0.038341,0.004185,0.001235,0.999264,0.001395,-0.038331,-0.001235,0.999990,0.004185,0.038337,-0.004135,0.999256,0.038331,-0.004185,-0.999256,-0.003801,-0.001430,-0.023388,-0.001542,0.004767,-0.007378,23.891056,28.353840,-1.000000,-1.000000,-1.000000
482148606.799932,0.043671,-0.004562,-1.027924,0.038386,0.004284,0.001206,0.999262,0.001369,-0.038376,-0.001206,0.999990,0.004284,0.038381,-0.004235,0.999254,0.038376,-0.004284,-0.999254,0.002884,-0.006183,-0.022917,-0.003119,0.002458,-0.000381,23.891056,28.353840,-1.000000,-1.000000,-1.000000
482148606.809946,0.039261,-0.010483,-1.021301,0.038386,0.004284,0.001206,0.999262,0.001369,-0.038376,-0.001206,0.999990,0.004284,0.038381,-0.004235,0.999254,0.038376,-0.004284,-0.999254,0.002884,-0.006183,-0.022917,-0.003119,0.002458,-0.000381,23.891056,28.353840,-1.000000,-1.000000,-1.000000
482148606.820053,0.041489,-0.005539,-1.024170,0.038392,0.004205,0.001153,0.999262,0.001313,-0.038382,-0.001153,0.999991,0.004205,0.038388,-0.004157,0.999254,0.038382,-0.004205,-0.999254,0.000177,0.000619,-0.024153,-0.007954,0.001282,-0.000616,23.891056,28.353840,-1.000000,-1.000000,-1.000000
482148606.829941,0.042374,-0.007477,-1.023132,0.038455,0.004125,0.001161,0.999260,0.001319,-0.038446,-0.001161,0.999991,0.004125,0.038451,-0.004077,0.999252,0.038446,-0.004125,-0.999252,0.005225,-0.000437,-0.028671,-0.009227,-0.001069,0.000524,23.891056,28.353840,-1.000000,-1.000000,-1.000000
482148606.839994,0.035538,-0.006592,-1.023544,0.038455,0.004125,0.001161,0.999260,0.001319,-0.038446,-0.001161,0.999991,0.004125,0.038451,-0.004077,0.999252,0.038446,-0.004125,-0.999252,0.005225,-0.000437,-0.028671,-0.009227,-0.001069,0.000524,23.891056,28.353840,-1.000000,-1.000000,-1.000000
482148606.849878,0.038528,-0.004578,-1.023392,0.038517,0.004176,0.001172,0.999257,0.001332,-0.038508,-0.001172,0.999991,0.004176,0.038513,-0.004128,0.999250,0.038508,-0.004176,-0.999250,0.002981,-0.001363,-0.024920,-0.004424,0.001319,0.001916,23.891056,28.353840,-1.000000,-1.000000,-1.000000
482148606.860058,0.039551,-0.006577,-1.025238,0.038560,0.004200,0.001207,0.999256,0.001368,-0.038550,-0.001207,0.999990,0.004200,0.038555,-0.004150,0.999248,0.038550,-0.004200,-0.999248,0.003824,-0.003277,-0.023884,-0.000783,-0.003455,0.002169,23.891056,28.353840,-1.000000,-1.000000,-1.000000
482148606.870093,0.039551,-0.006577,-1.025238,0.038519,0.004254,0.001203,0.999257,0.001366,-0.038510,-0.001203,0.999990,0.004254,0.038515,-0.004205,0.999249,0.038510,-0.004254,-0.999249,-0.002972,-0.002337,-0.024295,-0.000572,0.003654,-0.001440,23.891056,28.353840,-1.000000,-1.000000,-1.000000
482148606.879891,0.038422,-0.004562,-1.021439,0.038519,0.004254,0.001203,0.999257,0.001366,-0.038510,-0.001203,0.999990,0.004254,0.038515,-0.004205,0.999249,0.038510,-0.004254,-0.999249,-0.002972,-0.002337,-0.024295,-0.000572,0.003654,-0.001440,23.891056,28.353840,-1.000000,-1.000000,-1.000000
482148606.889955,0.039230,-0.011459,-1.021301,0.038517,0.004237,0.001185,0.999257,0.001347,-0.038507,-0.001185,0.999990,0.004237,0.038513,-0.004188,0.999249,0.038507,-0.004237,-0.999249,0.000021,-0.000341,-0.024142,-0.003052,-0.002298,-0.000315,23.891056,28.353840,-1.000000,-1.000000,-1.000000
482148606.899927,0.037384,-0.004547,-1.020538,0.038494,0.004170,0.001180,0.999258,0.001340,-0.038485,-0.001180,0.999991,0.004170,0.038490,-0.004122,0.999250,0.038485,-0.004170,-0.999250,-0.000063,-0.000392,-0.022188,0.001725,-0.001119,0.001093,23.891056,28.353840,-1.000000,-1.000000,-1.000000
482148606.909923,0.039520,-0.001587,-1.022385,0.038504,0.004258,0.001188,0.999258,0.001351,-0.038494,-0.001188,0.999990,0.004258,0.038500,-0.004209,0.999250,0.038494,-0.004258,-0.999250,0.000736,-0.007201,-0.022052,-0.012733,0.001329,0.000308,23.891056,28.353840,-1.000000,-1.000000,-1.000000
482148606.919881,0.039383,-0.005539,-1.021362,0.038504,0.004258,0.001188,0.999258,0.001351,-0.038494,-0.001188,0.999990,0.004258,0.038500,-0.004209,0.999250,0.038494,-0.004258,-0.999250,0.000736,-0.007201,-0.022052,-0.012733,0.001329,0.000308,23.891056,28.353840,-1.000000,-1.000000,-1.000000
482148606.929934,0.039536,-0.003571,-1.023346,0.038480,0.004217,0.001233,0.999259,0.001394,-0.038470,-0.001233,0.999990,0.004217,0.038476,-0.004167,0.999251,0.038470,-0.004217,-0.999251,-0.001086,-0.000330,-0.021287,-0.005217,0.002440,-0.004015,23.891056,28.353840,-1.000000,-1.000000,-1.000000
482148606.939926,0.038803,-0.010590,-1.031052,0.038495,0.004159,0.001231,0.999258,0.001390,-0.038485,-0.001231,0.999991,0.004159,0.038491,-0.004108,0.999251,0.038485,-0.004159,-0.999251,0.001035,0.002572,-0.023134,0.004098,-0.001128,0.002391,23.891056,28.353840,-1.000000,-1.000000,-1.000000
482148606.949998,0.035614,-0.005615,-1.024521,0.038499,0.004106,0.001167,0.999258,0.001324,-0.038490,-0.001167,0.999991,0.004106,0.038495,-0.004058,0.999251,0.038490,-0.004106,-0.999251,0.001046,0.000536,-0.024095,-0.002743,-0.003547,-0.004982,23.891056,28.353840,-1.000000,-1.000000,-1.000000
482148606.960052,0.039459,-0.006546,-1.023300,0.038499,0.004106,0.001167,0.999258,0.001324,-0.038490,-0.001167,0.999991,0.004106,0.038495,-0.004058,0.999251,0.038490,-0.004106,-0.999251,0.001046,0.000536,-0.024095,-0.002743,-0.003547,-0.004982,23.891056,28.353840,-1.000000,-1.000000,-1.000000
482148606.969486,0.036606,-0.003601,-1.023529,0.038480,0.004265,0.001117,0.999259,0.001280,-0.038470,-0.001117,0.999990,0.004265,0.038475,-0.004219,0.999251,0.038470,-0.004265,-0.999251,0.000333,-0.006325,-0.031801,0.002186,-0.001196,-0.005932,23.891056,28.353840,-1.000000,-1.000000,-1.000000
482148606.979013,0.036606,-0.003601,-1.023529,0.038404,0.004252,0.001140,0.999262,0.001303,-0.038394,-0.001140,0.999990,0.004252,0.038399,-0.004206,0.999254,0.038394,-0.004252,-0.999254,-0.002780,-0.001363,-0.025267,-0.007804,-0.004703,-0.000531,23.891056,28.353840,-1.000000,-1.000000,-1.000000
482148606.990014,0.040283,-0.010483,-1.022232,0.038404,0.004252,0.001140,0.999262,0.001303,-0.038394,-0.001140,0.999990,0.004252,0.038399,-0.004206,0.999254,0.038394,-0.004252,-0.999254,-0.002780,-0.001363,-0.025267,-0.007804,-0.004703,-0.000531,23.891056,28.353840,-1.000000,-1.000000,-1.000000
482148606.999931,0.039474,-0.007538,-1.024261,0.038418,0.004212,0.001116,0.999261,0.001277,-0.038409,-0.001116,0.999991,0.004212,0.038414,-0.004166,0.999253,0.038409,-0.004212,-0.999253,0.001051,-0.002334,-0.024047,-0.006587,0.001261,-0.000547,23.891056,28.353840,-1.000000,-1.000000,-1.000000
482148607.009935,0.039459,-0.010529,-1.025192,0.038421,0.004205,0.001094,0.999261,0.001255,-0.038412,-0.001094,0.999991,0.004205,0.038417,-0.004160,0.999253,0.038412,-0.004205,-0.999253,0.001872,-0.006277,-0.022979,-0.010317,0.003676,0.001576,23.891056,28.353840,-1.000000,-1.000000,-1.000000
482148607.019917,0.041306,-0.004501,-1.020309,0.038419,0.004242,0.001108,0.999261,0.001270,-0.038409,-0.001108,0.999990,0.004242,0.038414,-0.004197,0.999253,0.038409,-0.004242,-0.999253,0.001066,-0.003296,-0.025008,-0.002918,-0.001150,-0.000325,23.891056,28.353840,-1.000000,-1.000000,-1.000000
482148607.030101,0.042297,-0.006485,-1.021179,0.038419,0.004242,0.001108,0.999261,0.001270,-0.038409,-0.001108,0.999990,0.004242,0.038414,-0.004197,0.999253,0.038409,-0.004242,-0.999253,0.001066,-0.003296,-0.025008,-0.002918,-0.001150,-0.000325,23.891056,28.353840,-1.000000,-1.000000,-1.000000
482148607.039929,0.040558,-0.007538,-1.026154,0.038470,0.004355,0.001152,0.999259,0.001319,-0.038460,-0.001152,0.999990,0.004355,0.038465,-0.004307,0.999251,0.038460,-0.004355,-0.999251,0.000999,-0.006174,-0.025942,-0.003291,0.004882,0.006624,23.891056,28.353840,-1.000000,-1.000000,-1.000000
482148607.049933,0.038757,-0.005615,-1.028198,0.038542,0.004289,0.001203,0.999256,0.001367,-0.038532,-0.001203,0.999990,0.004289,0.038538,-0.004240,0.999248,0.038532,-0.004289,-0.999248,0.002773,-0.000212,-0.021061,-0.006713,0.003682,0.002937,23.891056,28.353840,-1.000000,-1.000000,-1.000000
482148607.059966,0.038345,-0.007523,-1.021408,0.038542,0.004289,0.001203,0.999256,0.001367,-0.038532,-0.001203,0.999990,0.004289,0.038538,-0.004240,0.999248,0.038532,-0.004289,-0.999248,0.002773,-0.000212,-0.021061,-0.006713,0.003682,0.002937,23.891056,28.353840,-1.000000,-1.000000,-1.000000
482148607.070018,0.040482,-0.006546,-1.024216,0.038696,0.004299,0.001218,0.999250,0.001384,-0.038686,-0.001218,0.999990,0.004299,0.038692,-0.004248,0.999242,0.038686,-0.004299,-0.999242,0.001872,-0.003239,-0.026911,-0.010310,0.002523,0.002766,23.891056,28.353840,-1.000000,-1.000000,-1.000000
482148607.080121,0.039551,-0.006577,-1.025238,0.038663,0.004260,0.001173,0.999252,0.001337,-0.038653,-0.001173,0.999990,0.004260,0.038659,-0.004212,0.999244,0.038653,-0.004260,-0.999244,0.000104,-0.001355,-0.028955,-0.005002,-0.003544,-0.005102,23.891056,28.353840,-1.000000,-1.000000,-1.000000
482148607.089921,0.039551,-0.006577,-1.025238,0.038677,0.004262,0.001136,0.999251,0.001300,-0.038667,-0.001136,0.999990,0.004262,0.038672,-0.004215,0.999243,0.038667,-0.004262,-0.999243,-0.000321,-0.003261,-0.022165,-0.002906,0.001266,0.000817,23.891056,28.353840,-1.000000,-1.000000,-1.000000
482148607.099973,0.038239,-0.007507,-1.019470,0.038677,0.004262,0.001136,0.999251,0.001300,-0.038667,-0.001136,0.999990,0.004262,0.038672,-0.004215,0.999243,0.038667,-0.004262,-0.999243,-0.000321,-0.003261,-0.022165,-0.002906,0.001266,0.000817,23.891056,28.353840,-1.000000,-1.000000,-1.000000
482148607.109946,0.043549,-0.003555,-1.025055,0.038701,0.004294,0.001117,0.999250,0.001283,-0.038691,-0.001117,0.999990,0.004294,0.038696,-0.004248,0.999242,0.038691,-0.004294,-0.999242,0.001791,-0.002252,-0.024974,-0.000144,0.000014,-0.004897,23.891056,28.353840,-1.000000,-1.000000,-1.000000
482148607.119932,0.034698,-0.004654,-1.025574,0.038741,0.004455,0.001092,0.999249,0.001264,-0.038731,-0.001092,0.999989,0.004455,0.038736,-0.004410,0.999240,0.038731,-0.004455,-0.999240,-0.000493,-0.003052,-0.020230,0.000821,0.002430,-0.000180,23.891056,28.353840,-1.000000,-1.000000,-1.000000
482148607.129925,0.035629,-0.006622,-1.025482,0.038846,0.004440,0.001149,0.999245,0.001321,-0.038836,-0.001149,0.999990,0.004440,0.038841,-0.004392,0.999236,0.038836,-0.004440,-0.999236,0.004713,0.000885,-0.025819,0.004238,0.004853,0.003490,23.891056,28.353840,-1.000000,-1.000000,-1.000000
482148607.139983,0.036453,-0.005569,-1.021545,0.038846,0.004440,0.001149,0.999245,0.001321,-0.038836,-0.001149,0.999990,0.004440,0.038841,-0.004392,0.999236,0.038836,-0.004440,-0.999236,0.004713,0.000885,-0.025819,0.004238,0.004853,0.003490,23.891056,28.353840,-1.000000,-1.000000,-1.000000
482148607.149644,0.040512,-0.005554,-1.024231,0.038795,0.004379,0.001198,0.999247,0.001367,-0.038785,-0.001198,0.999990,0.004379,0.038791,-0.004329,0.999238,0.038785,-0.004379,-0.999238,-0.004087,-0.000275,-0.026336,-0.004148,0.000078,0.001943,23.891056,28.353840,-1.000000,-1.000000,-1.000000
482148607.159925,0.040710,-0.005585,-1.028091,0.038728,0.004394,0.001180,0.999249,0.001349,-0.038718,-0.001180,0.999990,0.004394,0.038723,-0.004345,0.999241,0.038718,-0.004394,-0.999241,-0.003088,-0.002229,-0.026242,-0.005011,0.002397,-0.004007,23.891056,28.353840,-1.000000,-1.000000,-1.000000
482148607.170124,0.040329,-0.006516,-1.021301,0.038728,0.004394,0.001180,0.999249,0.001349,-0.038718,-0.001180,0.999990,0.004394,0.038723,-0.004345,0.999241,0.038718,-0.004394,-0.999241,-0.003088,-0.002229,-0.026242,-0.005011,0.002397,-0.004007,23.891056,28.353840,-1.000000,-1.000000,-1.000000
482148607.180405,0.035416,-0.005569,-1.020645,0.038669,0.004411,0.001139,0.999252,0.001309,-0.038659,-0.001139,0.999990,0.004411,0.038664,-0.004364,0.999243,0.038659,-0.004411,-0.999243,0.001853,-0.001143,-0.024988,-0.005202,0.002417,-0.000493,23.891056,28.353840,-1.000000,-1.000000,-1.000000
482148607.189955,0.035416,-0.005569,-1.020645,0.038705,0.004451,0.001180,0.999250,0.001352,-0.038695,-0.001180,0.999989,0.004451,0.038701,-0.004402,0.999241,0.038695,-0.004451,-0.999241,0.002015,-0.001134,-0.028850,0.000441,0.001266,0.006865,23.891056,28.353840,-1.000000,-1.000000,-1.000000
482148607.199931,0.039429,-0.007523,-1.023300,0.038701,0.004409,0.001214,0.999250,0.001383,-0.038691,-0.001214,0.999990,0.004409,0.038697,-0.004359,0.999241,0.038691,-0.004409,-0.999241,0.001638,-0.002106,-0.022060,-0.005120,0.001222,-0.001648,23.891056,28.353840,-1.000000,-1.000000,-1.000000
482148607.210013,0.039536,-0.005569,-1.024277,0.038701,0.004409,0.001214,0.999250,0.001383,-0.038691,-0.001214,0.999990,0.004409,0.038697,-0.004359,0.999241,0.038691,-0.004409,-0.999241,0.001638,-0.002106,-0.022060,-0.005120,0.001222,-0.001648,23.891056,28.353840,-1.000000,-1.000000,-1.000000
482148607.219939,0.045395,-0.007477,-1.024887,0.038646,0.004395,0.001227,0.999252,0.001396,-0.038636,-0.001227,0.999990,0.004395,0.038642,-0.004344,0.999244,0.038636,-0.004395,-0.999244,-0.003220,-0.001174,-0.021401,-0.006590,0.002442,0.002958,0.000000,0.000000,-1.000000,-1.000000,-1.000000
482148607.229971,0.038528,-0.004578,-1.023392,0.038680,0.004427,0.001239,0.999251,0.001409,-0.038670,-0.001239,0.999989,0.004427,0.038675,-0.004376,0.999242,0.038670,-0.004427,-0.999242,0.000866,-0.001142,-0.025034,-0.000665,0.001243,0.005632,0.000000,0.000000,-1.000000,-1.000000,-1.000000
482148607.239500,0.036606,-0.009567,-1.026352,0.038684,0.004384,0.001255,0.999251,0.001424,-0.038674,-0.001255,0.999990,0.004384,0.038680,-0.004332,0.999242,0.038674,-0.004384,-0.999242,0.000861,-0.001186,-0.025034,-0.005217,-0.000682,-0.001360,0.000000,0.000000,-1.000000,-1.000000,-1.000000
482148607.249906,0.043381,-0.006500,-1.023071,0.038684,0.004384,0.001255,0.999251,0.001424,-0.038674,-0.001255,0.999990,0.004384,0.038680,-0.004332,0.999242,0.038674,-0.004384,-0.999242,0.000861,-0.001186,-0.025034,-0.005217,-0.000682,-0.001360,23.165161,27.627945,-1.000000,-1.000000,-1.000000
482148607.259938,0.037460,-0.001572,-1.020569,0.038750,0.004369,0.001218,0.999248,0.001386,-0.038740,-0.001218,0.999990,0.004369,0.038746,-0.004319,0.999240,0.038740,-0.004369,-0.999240,-0.000212,-0.000208,-0.024152,-0.005482,-0.001829,0.003341,23.165161,27.627945,-1.000000,-1.000000,-1.000000
482148607.269932,0.039459,-0.010529,-1.025192,0.038699,0.004431,0.001218,0.999250,0.001389,-0.038689,-0.001218,0.999989,0.004431,0.038694,-0.004380,0.999241,0.038689,-0.004431,-0.999241,-0.002083,-0.005137,-0.027110,-0.005276,0.000523,-0.000204,23.165161,27.627945,-1.000000,-1.000000,-1.000000
482148607.279797,0.040482,-0.008545,-1.025177,0.038699,0.004431,0.001218,0.999250,0.001389,-0.038689,-0.001218,0.999989,0.004431,0.038694,-0.004380,0.999241,0.038689,-0.004431,-0.999241,-0.002083,-0.005137,-0.027110,-0.005276,0.000523,-0.000204,23.165161,27.627945,-1.000000,-1.000000,-1.000000
482148607.289942,0.038376,-0.006546,-1.021408,0.038644,0.004353,0.001284,0.999252,0.001452,-0.038634,-0.001284,0.999990,0.004353,0.038639,-0.004300,0.999244,0.038634,-0.004353,-0.999244,-0.001173,0.002781,-0.021325,-0.003262,-0.004196,0.007013,23.165161,27.627945,-1.000000,-1.000000,-1.000000
482148607.299899,0.038376,-0.006546,-1.021408,0.038643,0.004292,0.001322,0.999252,0.001487,-0.038633,-0.001322,0.999990,0.004292,0.038639,-0.004238,0.999244,0.038633,-0.004292,-0.999244,-0.001173,0.002721,-0.021325,-0.009102,0.001766,0.003105,23.167545,27.630329,-1.000000,-1.000000,-1.000000
482148607.310014,0.044403,-0.006500,-1.023972,0.038639,0.004461,0.001345,0.999252,0.001516,-0.038629,-0.001345,0.999989,0.004461,0.038635,-0.004406,0.999244,0.038629,-0.004461,-0.999244,0.001853,-0.004084,-0.025933,-0.000502,-0.000678,0.001235,23.167545,27.630329,-1.000000,-1.000000,-1.000000
482148607.319893,0.035355,-0.005569,-1.019669,0.038639,0.004461,0.001345,0.999252,0.001516,-0.038629,-0.001345,0.999989,0.004461,0.038635,-0.004406,0.999244,0.038629,-0.004461,-0.999244,0.001853,-0.004084,-0.025933,-0.000502,-0.000678,0.001235,23.167545,27.630329,-1.000000,-1.000000,-1.000000
482148607.329927,0.042450,-0.008514,-1.025055,0.038627,0.004463,0.001340,0.999253,0.001511,-0.038617,-0.001340,0.999989,0.004463,0.038623,-0.004407,0.999244,0.038617,-0.004463,-0.999244,-0.000241,-0.002083,-0.022164,-0.005197,0.000514,-0.001375,23.167545,27.630329,-1.000000,-1.000000,-1.000000
482148607.339967,0.041534,-0.007523,-1.026093,0.038623,0.004517,0.001320,0.999253,0.001493,-0.038613,-0.001320,0.999989,0.004517,0.038619,-0.004463,0.999244,0.038613,-0.004517,-0.999244,-0.003258,-0.001052,-0.020425,-0.001503,-0.003092,-0.002310,23.167545,27.630329,-1.000000,-1.000000,-1.000000
482148607.349976,0.039429,-0.005554,-1.022339,0.038672,0.004561,0.001309,0.999251,0.001484,-0.038662,-0.001309,0.999989,0.004561,0.038668,-0.004507,0.999242,0.038662,-0.004561,-0.999242,0.003788,-0.003953,-0.025813,-0.006399,0.002910,-0.001470,23.169628,27.632412,-1.000000,-1.000000,-1.000000
482148607.360182,0.040451,-0.009521,-1.025162,0.038672,0.004561,0.001309,0.999251,0.001484,-0.038662,-0.001309,0.999989,0.004561,0.038668,-0.004507,0.999242,0.038662,-0.004561,-0.999242,0.003788,-0.003953,-0.025813,-0.006399,0.002910,-0.001470,23.169628,27.632412,-1.000000,-1.000000,-1.000000
482148607.369923,0.034607,-0.004623,-1.023636,0.038673,0.004532,0.001315,0.999251,0.001489,-0.038663,-0.001315,0.999989,0.004532,0.038670,-0.004477,0.999242,0.038663,-0.004532,-0.999242,0.002871,-0.002991,-0.026851,-0.003104,-0.007793,0.004719,23.169628,27.632412,-1.000000,-1.000000,-1.000000
482148607.379936,0.043274,-0.006485,-1.021118,0.038665,0.004517,0.001391,0.999251,0.001564,-0.038655,-0.001391,0.999989,0.004517,0.038662,-0.004459,0.999242,0.038655,-0.004517,-0.999242,0.000774,-0.001038,-0.023096,-0.006863,0.000599,0.006761,23.169628,27.632412,-1.000000,-1.000000,-1.000000
482148607.390131,0.038559,-0.003586,-1.023407,0.038665,0.004517,0.001391,0.999251,0.001564,-0.038655,-0.001391,0.999989,0.004517,0.038662,-0.004459,0.999242,0.038655,-0.004517,-0.999242,0.000774,-0.001038,-0.023096,-0.006863,0.000599,0.006761,23.169628,27.632412,-1.000000,-1.000000,-1.000000
482148607.399994,0.040497,-0.007538,-1.025192,0.038581,0.004590,0.001435,0.999255,0.001611,-0.038571,-0.001435,0.999988,0.004590,0.038578,-0.004531,0.999245,0.038571,-0.004590,-0.999245,-0.003964,-0.000034,-0.024391,0.000724,-0.000683,0.001298,23.170876,27.633659,-1.000000,-1.000000,-1.000000
482148607.410236,0.040497,-0.007538,-1.025192,0.038629,0.004587,0.001473,0.999253,0.001649,-0.038619,-0.001473,0.999988,0.004587,0.038626,-0.004527,0.999243,0.038619,-0.004587,-0.999243,0.004655,-0.001898,-0.021875,-0.005580,-0.004192,0.005717,23.170876,27.633659,-1.000000,-1.000000,-1.000000
482148607.419823,0.040649,-0.007553,-1.028076,0.038581,0.004502,0.001539,0.999254,0.001712,-0.038571,-0.001539,0.999989,0.004502,0.038578,-0.004439,0.999246,0.038571,-0.004502,-0.999246,-0.000012,0.000916,-0.024161,-0.004105,-0.004240,0.001095,23.170876,27.633659,-1.000000,-1.000000,-1.000000
482148607.429878,0.042755,-0.006577,-1.029892,0.038581,0.004502,0.001539,0.999254,0.001712,-0.038571,-0.001539,0.999989,0.004502,0.038578,-0.004439,0.999246,0.038571,-0.004502,-0.999246,-0.000012,0.000916,-0.024161,-0.004105,-0.004240,0.001095,23.170876,27.633659,-1.000000,-1.000000,-1.000000
482148607.439892,0.038345,-0.007523,-1.021408,0.038593,0.004483,0.001539,0.999254,0.001711,-0.038583,-0.001539,0.999989,0.004483,0.038590,-0.004420,0.999245,0.038583,-0.004483,-0.999245,0.001914,-0.003055,-0.025947,-0.005310,-0.003041,0.001016,23.170876,27.633659,-1.000000,-1.000000,-1.000000
482148607.449841,0.040314,-0.005508,-1.020355,0.038576,0.004525,0.001562,0.999255,0.001735,-0.038566,-0.001562,0.999989,0.004525,0.038573,-0.004462,0.999246,0.038566,-0.004525,-0.999246,0.004189,-0.002051,-0.030646,-0.005103,-0.006649,-0.002450,23.170876,27.633659,-1.000000,-1.000000,-1.000000
482148607.459832,0.042252,-0.006470,-1.020218,0.038560,0.004544,0.001605,0.999255,0.001779,-0.038550,-0.001605,0.999988,0.004544,0.038558,-0.004479,0.999246,0.038550,-0.004544,-0.999246,-0.000205,-0.002978,-0.022162,-0.002149,0.000602,0.009356,23.170876,27.633659,-1.000000,-1.000000,-1.000000
482148607.470043,0.041763,-0.004593,-1.029022,0.038560,0.004544,0.001605,0.999255,0.001779,-0.038550,-0.001605,0.999988,0.004544,0.038558,-0.004479,0.999246,0.038550,-0.004544,-0.999246,-0.000205,-0.002978,-0.022162,-0.002149,0.000602,0.009356,23.170876,27.633659,-1.000000,-1.000000,-1.000000
482148607.479769,0.039597,-0.004593,-1.025269,0.038572,0.004543,0.001590,0.999255,0.001764,-0.038562,-0.001590,0.999988,0.004543,0.038569,-0.004478,0.999246,0.038562,-0.004543,-0.999246,0.001752,-0.000966,-0.021109,-0.000338,0.002890,-0.001155,23.170876,27.633659,-1.000000,-1.000000,-1.000000
482148607.489902,0.037399,-0.007538,-1.022446,0.038605,0.004575,0.001596,0.999253,0.001772,-0.038595,-0.001596,0.999988,0.004575,0.038603,-0.004510,0.999244,0.038595,-0.004575,-0.999244,0.003656,-0.001895,-0.020973,-0.001543,-0.000683,-0.001169,23.170876,27.633659,-1.000000,-1.000000,-1.000000
482148607.499831,0.036484,-0.010544,-1.024399,0.038610,0.004460,0.001580,0.999253,0.001751,-0.038600,-0.001580,0.999989,0.004460,0.038607,-0.004396,0.999245,0.038600,-0.004460,-0.999245,0.000997,-0.000133,-0.026024,-0.002549,-0.001901,-0.004731,23.170876,27.633659,-1.000000,-1.000000,-1.000000
482148607.509830,0.038681,-0.006607,-1.027222,0.038610,0.004460,0.001580,0.999253,0.001751,-0.038600,-0.001580,0.999989,0.004460,0.038607,-0.004396,0.999245,0.038600,-0.004460,-0.999245,0.000997,-0.000133,-0.026024,-0.002549,-0.001901,-0.004731,23.170876,27.633659,-1.000000,-1.000000,-1.000000
482148607.519859,0.038300,-0.007507,-1.020447,0.038541,0.004520,0.001571,0.999256,0.001744,-0.038531,-0.001571,0.999989,0.004520,0.038539,-0.004456,0.999247,0.038531,-0.004520,-0.999247,-0.001132,-0.003018,-0.023199,-0.001539,-0.003070,-0.001138,23.170876,27.633659,-1.000000,-1.000000,-1.000000
482148607.529382,0.038300,-0.007507,-1.020447,0.038470,0.004638,0.001540,0.999259,0.001718,-0.038460,-0.001540,0.999988,0.004638,0.038468,-0.004575,0.999249,0.038460,-0.004638,-0.999249,-0.001977,-0.005906,-0.025149,-0.004083,-0.000655,0.001048,23.170876,27.633659,-1.000000,-1.000000,-1.000000
482148607.539606,0.038605,-0.003601,-1.024368,0.038470,0.004638,0.001540,0.999259,0.001718,-0.038460,-0.001540,0.999988,0.004638,0.038468,-0.004575,0.999249,0.038460,-0.004638,-0.999249,-0.001977,-0.005906,-0.025149,-0.004083,-0.000655,0.001048,23.170876,27.633659,-1.000000,-1.000000,-1.000000
482148607.549853,0.040604,-0.001587,-1.024277,0.038469,0.004643,0.001519,0.999259,0.001696,-0.038459,-0.001519,0.999988,0.004643,0.038467,-0.004581,0.999249,0.038459,-0.004643,-0.999249,0.000222,-0.001964,-0.027972,-0.001331,0.001669,-0.004715,23.170876,27.633659,-1.000000,-1.000000,-1.000000
482148607.559834,0.039688,-0.003601,-1.026245,0.038401,0.004672,0.001473,0.999261,0.001651,-0.038391,-0.001473,0.999988,0.004672,0.038398,-0.004612,0.999252,0.038391,-0.004672,-0.999252,0.000214,0.001071,-0.025116,-0.001463,-0.001893,-0.002325,23.170876,27.633659,-1.000000,-1.000000,-1.000000
482148607.569862,0.038666,-0.005600,-1.026276,0.038419,0.004601,0.001457,0.999261,0.001633,-0.038409,-0.001457,0.999988,0.004601,0.038416,-0.004542,0.999252,0.038409,-0.004601,-0.999252,0.002195,0.003014,-0.025025,-0.001332,-0.000719,-0.004683,23.170876,27.633659,-1.000000,-1.000000,-1.000000
482148607.579876,0.039612,-0.002594,-1.024307,0.038419,0.004601,0.001457,0.999261,0.001633,-0.038409,-0.001457,0.999988,0.004601,0.038416,-0.004542,0.999252,0.038409,-0.004601,-0.999252,0.002195,0.003014,-0.025025,-0.001332,-0.000719,-0.004683,23.170876,27.633659,-1.000000,-1.000000,-1.000000
482148607.589917,0.035522,-0.004608,-1.022598,0.038460,0.004572,0.001468,0.999259,0.001643,-0.038450,-0.001468,0.999988,0.004572,0.038457,-0.004512,0.999250,0.038450,-0.004572,-0.999250,0.001238,0.000971,-0.026995,0.001954,0.004093,0.001298,23.170876,27.633659,-1.000000,-1.000000,-1.000000
482148607.599887,0.034988,-0.007477,-1.013855,0.038394,0.004553,0.001464,0.999262,0.001638,-0.038384,-0.001464,0.999989,0.004553,0.038391,-0.004493,0.999253,0.038384,-0.004553,-0.999253,0.000282,-0.001047,-0.027023,-0.005155,-0.006640,-0.001278,23.170876,27.633659,-1.000000,-1.000000,-1.000000
482148607.609872,0.039261,-0.010483,-1.021301,0.038394,0.004553,0.001464,0.999262,0.001638,-0.038384,-0.001464,0.999989,0.004553,0.038391,-0.004493,0.999253,0.038384,-0.004553,-0.999253,0.000282,-0.001047,-0.027023,-0.005155,-0.006640,-0.001278,23.170876,27.633659,-1.000000,-1.000000,-1.000000
482148607.619841,0.038773,-0.004623,-1.028214,0.038293,0.004484,0.001444,0.999266,0.001615,-0.038283,-0.001444,0.999989,0.004484,0.038290,-0.004426,0.999257,0.038283,-0.004484,-0.999257,-0.002760,-0.000124,-0.023341,0.004704,-0.000749,-0.004369,23.170876,27.633659,-1.000000,-1.000000,-1.000000
482148607.629833,0.041504,-0.006546,-1.025131,0.038194,0.004516,0.001445,0.999269,0.001617,-0.038185,-0.001445,0.999989,0.004516,0.038191,-0.004457,0.999260,0.038185,-0.004516,-0.999260,-0.003196,-0.002961,-0.014594,-0.010188,-0.004209,0.001953,23.170876,27.633659,-1.000000,-1.000000,-1.000000
482148607.639826,0.040573,-0.004578,-1.025223,0.038165,0.004617,0.001463,0.999270,0.001638,-0.038155,-0.001463,0.999988,0.004617,0.038162,-0.004558,0.999261,0.038155,-0.004617,-0.999261,0.001106,-0.005866,-0.022040,0.001561,-0.001820,0.008405,23.170876,27.633659,-1.000000,-1.000000,-1.000000
482148607.649921,0.038452,-0.005569,-1.022400,0.038165,0.004617,0.001463,0.999270,0.001638,-0.038155,-0.001463,0.999988,0.004617,0.038162,-0.004558,0.999261,0.038155,-0.004617,-0.999261,0.001106,-0.005866,-0.022040,0.001561,-0.001820,0.008405,23.170876,27.633659,-1.000000,-1.000000,-1.000000
482148607.659743,0.038452,-0.005569,-1.022400,0.038133,0.004610,0.001518,0.999272,0.001693,-0.038123,-0.001518,0.999988,0.004610,0.038130,-0.004549,0.999262,0.038123,-0.004610,-0.999262,0.000649,-0.000013,-0.028951,-0.004344,-0.000623,0.005733,23.170876,27.633659,-1.000000,-1.000000,-1.000000
482148607.669826,0.038391,-0.010513,-1.023315,0.038183,0.004580,0.001529,0.999270,0.001703,-0.038173,-0.001529,0.999988,0.004580,0.038181,-0.004518,0.999261,0.038173,-0.004580,-0.999261,0.002400,0.000002,-0.025962,-0.003940,-0.001875,-0.001279,23.170876,27.633659,-1.000000,-1.000000,-1.000000
482148607.679973,0.035614,-0.005615,-1.024521,0.038170,0.004522,0.001534,0.999270,0.001706,-0.038161,-0.001534,0.999989,0.004522,0.038168,-0.004460,0.999261,0.038161,-0.004522,-0.999261,0.000291,-0.001047,-0.023139,-0.004140,-0.003038,0.002251,23.170876,27.633659,-1.000000,-1.000000,-1.000000
482148607.689886,0.044449,-0.006516,-1.024948,0.038170,0.004522,0.001534,0.999270,0.001706,-0.038161,-0.001534,0.999989,0.004522,0.038168,-0.004460,0.999261,0.038161,-0.004522,-0.999261,0.000291,-0.001047,-0.023139,-0.004140,-0.003038,0.002251,23.170540,27.633324,-1.000000,-1.000000,-1.000000
482148607.699851,0.034439,-0.005585,-1.020706,0.038057,0.004710,0.001597,0.999274,0.001775,-0.038047,-0.001597,0.999988,0.004710,0.038055,-0.004646,0.999265,0.038047,-0.004710,-0.999265,-0.002433,-0.000905,-0.025256,0.000563,0.002926,0.004766,23.172440,27.635223,-1.000000,-1.000000,-1.000000
482148607.709000,0.040512,-0.005554,-1.024231,0.038143,0.004738,0.001656,0.999271,0.001836,-0.038134,-0.001656,0.999987,0.004738,0.038142,-0.004671,0.999261,0.038134,-0.004738,-0.999261,0.006315,-0.001778,-0.025687,-0.001850,-0.001832,0.004704,23.172413,27.635197,-1.000000,-1.000000,-1.000000
482148607.719937,0.039551,-0.006577,-1.025238,0.038143,0.004738,0.001656,0.999271,0.001836,-0.038134,-0.001656,0.999987,0.004738,0.038142,-0.004671,0.999261,0.038134,-0.004738,-0.999261,0.006315,-0.001778,-0.025687,-0.001850,-0.001832,0.004704,23.172413,27.635197,-1.000000,-1.000000,-1.000000
482148607.730040,0.038925,-0.005646,-1.031113,0.038027,0.004707,0.001669,0.999275,0.001846,-0.038018,-0.001669,0.999988,0.004707,0.038026,-0.004641,0.999266,0.038018,-0.004707,-0.999266,-0.003579,-0.000877,-0.021440,0.000901,0.000487,-0.001059,23.172413,27.635197,-1.000000,-1.000000,-1.000000
482148607.739739,0.042419,-0.007492,-1.024094,0.038067,0.004662,0.001668,0.999274,0.001844,-0.038058,-0.001668,0.999988,0.004662,0.038066,-0.004596,0.999265,0.038058,-0.004662,-0.999265,0.002454,-0.000892,-0.024966,-0.006547,0.001745,0.002062,23.172413,27.635197,-1.000000,-1.000000,-1.000000
482148607.749929,0.043610,-0.003555,-1.026016,0.038020,0.004697,0.001616,0.999276,0.001794,-0.038011,-0.001616,0.999988,0.004697,0.038019,-0.004632,0.999266,0.038011,-0.004697,-0.999266,0.000914,-0.000949,-0.031846,0.003454,-0.000736,-0.003260,23.172413,27.635197,-1.000000,-1.000000,-1.000000
482148607.759908,0.038757,-0.009598,-1.030090,0.038020,0.004697,0.001616,0.999276,0.001794,-0.038011,-0.001616,0.999988,0.004697,0.038019,-0.004632,0.999266,0.038011,-0.004697,-0.999266,0.000914,-0.000949,-0.031846,0.003454,-0.000736,-0.003260,23.172413,27.635197,-1.000000,-1.000000,-1.000000
482148607.769943,0.033691,-0.003662,-1.024658,0.038032,0.004739,0.001617,0.999275,0.001796,-0.038022,-0.001617,0.999987,0.004739,0.038030,-0.004674,0.999266,0.038022,-0.004739,-0.999266,0.004397,-0.002753,-0.024828,-0.001573,-0.006648,0.000082,23.172686,27.635471,-1.000000,-1.000000,-1.000000
482148607.779404,0.033691,-0.003662,-1.024658,0.038129,0.004637,0.001563,0.999272,0.001739,-0.038119,-0.001563,0.999988,0.004637,0.038127,-0.004574,0.999262,0.038119,-0.004637,-0.999262,0.005490,0.001081,-0.026754,-0.001777,-0.001837,0.003532,23.172686,27.635471,-1.000000,-1.000000,-1.000000
482148607.789763,0.043381,-0.010483,-1.024963,0.038129,0.004637,0.001563,0.999272,0.001739,-0.038119,-0.001563,0.999988,0.004637,0.038127,-0.004574,0.999262,0.038119,-0.004637,-0.999262,0.005490,0.001081,-0.026754,-0.001777,-0.001837,0.003532,23.172686,27.635471,-1.000000,-1.000000,-1.000000
482148607.800162,0.037308,-0.003540,-1.018616,0.038107,0.004715,0.001531,0.999273,0.001710,-0.038097,-0.001531,0.999988,0.004715,0.038105,-0.004653,0.999263,0.038097,-0.004715,-0.999263,0.000660,-0.004883,-0.030827,0.001045,-0.000718,-0.003385,23.172686,27.635471,-1.000000,-1.000000,-1.000000
482148607.809804,0.042450,-0.008514,-1.025055,0.038054,0.004734,0.001586,0.999274,0.001765,-0.038045,-0.001586,0.999988,0.004733,0.038052,-0.004670,0.999265,0.038045,-0.004733,-0.999265,0.005336,-0.005749,-0.025699,-0.007606,-0.000652,-0.000311,23.172686,27.635471,-1.000000,-1.000000,-1.000000
482148607.819933,0.040527,-0.006561,-1.025192,0.038014,0.004739,0.001571,0.999276,0.001750,-0.038004,-0.001571,0.999988,0.004739,0.038012,-0.004676,0.999266,0.038004,-0.004739,-0.999266,-0.000697,0.001199,-0.019349,0.006954,-0.000725,-0.000728,23.173126,27.635910,-1.000000,-1.000000,-1.000000
482148607.829970,0.036423,-0.004562,-1.020599,0.038014,0.004739,0.001571,0.999276,0.001750,-0.038004,-0.001571,0.999988,0.004739,0.038012,-0.004676,0.999266,0.038004,-0.004739,-0.999266,-0.000697,0.001199,-0.019349,0.006954,-0.000725,-0.000728,23.173126,27.635910,-1.000000,-1.000000,-1.000000
482148607.839952,0.039581,-0.005585,-1.025253,0.038037,0.004727,0.001523,0.999275,0.001702,-0.038027,-0.001523,0.999988,0.004727,0.038035,-0.004666,0.999266,0.038027,-0.004727,-0.999266,0.004423,-0.003787,-0.025789,-0.003712,0.000487,-0.004824,23.173126,27.635910,-1.000000,-1.000000,-1.000000
482148607.849941,0.032730,-0.001678,-1.023773,0.038054,0.004724,0.001502,0.999275,0.001681,-0.038045,-0.001502,0.999988,0.004724,0.038052,-0.004663,0.999265,0.038045,-0.004724,-0.999265,0.002483,-0.001837,-0.025927,-0.004985,-0.000690,-0.003699,23.173126,27.635910,-1.000000,-1.000000,-1.000000
482148607.859869,0.046127,-0.007401,-1.019989,0.038001,0.004727,0.001509,0.999277,0.001687,-0.037991,-0.001509,0.999988,0.004727,0.037999,-0.004666,0.999267,0.037991,-0.004727,-0.999267,-0.001569,0.000164,-0.021332,-0.001763,-0.001838,0.003533,23.173126,27.635910,-1.000000,-1.000000,-1.000000
482148607.869894,0.039734,-0.003616,-1.027206,0.037985,0.004704,0.001563,0.999277,0.001741,-0.037975,-0.001563,0.999988,0.004704,0.037983,-0.004641,0.999268,0.037975,-0.004704,-0.999268,0.001606,-0.000881,-0.025986,-0.004245,-0.004203,0.004610,23.173483,27.636269,-1.000000,-1.000000,-1.000000
482148607.879933,0.041412,-0.006516,-1.023193,0.037844,0.004629,0.001559,0.999283,0.001733,-0.037834,-0.001559,0.999988,0.004629,0.037842,-0.004567,0.999273,0.037834,-0.004629,-0.999273,-0.005104,0.002951,-0.024500,-0.001766,-0.001844,0.003533,23.173483,27.636269,-1.000000,-1.000000,-1.000000
482148607.889931,0.037720,-0.005615,-1.027298,0.038011,0.004646,0.001607,0.999276,0.001783,-0.038001,-0.001607,0.999988,0.004646,0.038009,-0.004582,0.999267,0.038001,-0.004646,-0.999267,0.008126,-0.002754,-0.020722,-0.002838,0.002923,0.001064,23.173483,27.636269,-1.000000,-1.000000,-1.000000
482148607.899892,0.037720,-0.005615,-1.027298,0.038011,0.004646,0.001607,0.999276,0.001783,-0.038001,-0.001607,0.999988,0.004646,0.038009,-0.004582,0.999267,0.038001,-0.004646,-0.999267,0.008126,-0.002754,-0.020722,-0.002838,0.002923,0.001064,23.173483,27.636269,-1.000000,-1.000000,-1.000000
482148607.909988,0.035507,-0.007568,-1.023544,0.038028,0.004643,0.001603,0.999275,0.001778,-0.038019,-0.001603,0.999988,0.004643,0.038026,-0.004579,0.999266,0.038019,-0.004643,-0.999266,0.001715,0.001027,-0.027940,0.000784,0.001714,0.001268,23.173483,27.636269,-1.000000,-1.000000,-1.000000
482148607.919895,0.040359,-0.005524,-1.021317,0.038042,0.004670,0.001620,0.999275,0.001797,-0.038032,-0.001620,0.999988,0.004670,0.038040,-0.004605,0.999266,0.038032,-0.004670,-0.999266,-0.000313,-0.000945,-0.028032,0.001995,-0.000677,0.001363,23.174129,27.636913,-1.000000,-1.000000,-1.000000
482148607.930096,0.038422,-0.006561,-1.022385,0.037964,0.004753,0.001632,0.999278,0.001812,-0.037954,-0.001632,0.999987,0.004753,0.037962,-0.004688,0.999268,0.037954,-0.004753,-0.999268,-0.002447,-0.002815,-0.024276,0.004615,0.000472,-0.002041,23.174129,27.636913,-1.000000,-1.000000,-1.000000
482148607.939884,0.038376,-0.004547,-1.020477,0.037964,0.004753,0.001632,0.999278,0.001812,-0.037954,-0.001632,0.999987,0.004753,0.037962,-0.004688,0.999268,0.037954,-0.004753,-0.999268,-0.002447,-0.002815,-0.024276,0.004615,0.000472,-0.002041,23.174129,27.636913,-1.000000,-1.000000,-1.000000
482148607.949943,0.039459,-0.010529,-1.025192,0.037944,0.004711,0.001607,0.999279,0.001784,-0.037935,-0.001607,0.999988,0.004711,0.037943,-0.004646,0.999269,0.037935,-0.004711,-0.999269,0.002425,-0.000813,-0.022047,-0.003705,-0.001899,-0.004792,23.174129,27.636913,-1.000000,-1.000000,-1.000000
482148607.959931,0.036621,-0.006607,-1.025421,0.037931,0.004685,0.001644,0.999279,0.001821,-0.037921,-0.001644,0.999988,0.004685,0.037929,-0.004619,0.999270,0.037921,-0.004685,-0.999270,0.000500,-0.001876,-0.023115,-0.005514,-0.001800,0.005687,23.174129,27.636913,-1.000000,-1.000000,-1.000000
482148607.969796,0.040588,-0.006561,-1.026154,0.037896,0.004709,0.001672,0.999280,0.001849,-0.037887,-0.001672,0.999988,0.004709,0.037895,-0.004642,0.999271,0.037887,-0.004709,-0.999271,0.001572,-0.005820,-0.025921,-0.002825,0.000535,0.001096,23.174129,27.636913,-1.000000,-1.000000,-1.000000
482148607.979961,0.039642,-0.005585,-1.026215,0.037896,0.004709,0.001672,0.999280,0.001849,-0.037887,-0.001672,0.999988,0.004709,0.037895,-0.004642,0.999271,0.037887,-0.004709,-0.999271,0.001572,-0.005820,-0.025921,-0.002825,0.000535,0.001096,23.175943,27.638729,-1.000000,-1.000000,-1.000000
482148607.989990,0.040619,-0.005569,-1.026169,0.037863,0.004735,0.001646,0.999282,0.001824,-0.037853,-0.001646,0.999987,0.004735,0.037862,-0.004669,0.999272,0.037853,-0.004735,-0.999272,-0.001232,-0.001872,-0.026149,0.001068,0.002863,-0.003432,23.175943,27.638729,-1.000000,-1.000000,-1.000000
482148607.999005,0.040619,-0.005569,-1.026169,0.037867,0.004725,0.001587,0.999282,0.001765,-0.037858,-0.001587,0.999988,0.004725,0.037866,-0.004661,0.999272,0.037858,-0.004725,-0.999272,0.002730,-0.001837,-0.026882,-0.001143,-0.004318,-0.006976,23.175943,27.638729,-1.000000,-1.000000,-1.000000
482148608.010129,0.041550,-0.004562,-1.025162,0.037867,0.004725,0.001587,0.999282,0.001765,-0.037858,-0.001587,0.999988,0.004725,0.037866,-0.004661,0.999272,0.037858,-0.004725,-0.999272,0.002730,-0.001837,-0.026882,-0.001143,-0.004318,-0.006976,23.175943,27.638729,-1.000000,-1.000000,-1.000000
482148608.019869,0.037323,-0.004547,-1.019562,0.037865,0.004742,0.001577,0.999282,0.001756,-0.037855,-0.001577,0.999988,0.004742,0.037863,-0.004678,0.999272,0.037855,-0.004742,-0.999272,0.001787,-0.000843,-0.026943,-0.003961,0.000530,-0.000138,23.175943,27.638729,-1.000000,-1.000000,-1.000000
482148608.029984,0.036758,-0.009598,-1.029251,0.037987,0.004727,0.001535,0.999277,0.001713,-0.037977,-0.001534,0.999988,0.004727,0.037985,-0.004665,0.999267,0.037977,-0.004727,-0.999267,0.003572,0.000165,-0.025894,-0.001278,0.001676,-0.004713,23.177387,27.640171,-1.000000,-1.000000,-1.000000
482148608.039937,0.036453,-0.005569,-1.021545,0.037937,0.004702,0.001530,0.999279,0.001707,-0.037927,-0.001530,0.999988,0.004702,0.037935,-0.004641,0.999269,0.037927,-0.004702,-0.999269,-0.000604,0.000155,-0.020292,-0.003960,-0.003048,-0.000090,23.177387,27.640171,-1.000000,-1.000000,-1.000000
482148608.049957,0.038284,-0.008514,-1.020432,0.037937,0.004702,0.001530,0.999279,0.001707,-0.037927,-0.001530,0.999988,0.004702,0.037935,-0.004641,0.999269,0.037927,-0.004702,-0.999269,-0.000604,0.000155,-0.020292,-0.003960,-0.003048,-0.000090,23.177387,27.640171,-1.000000,-1.000000,-1.000000
482148608.059934,0.034683,-0.005646,-1.025558,0.037885,0.004739,0.001569,0.999281,0.001747,-0.037876,-0.001569,0.999988,0.004739,0.037883,-0.004676,0.999271,0.037876,-0.004739,-0.999271,-0.001117,-0.004859,-0.029980,-0.000735,0.000579,0.007079,23.177387,27.640171,-1.000000,-1.000000,-1.000000
482148608.069895,0.038574,-0.004593,-1.024353,0.037818,0.004760,0.001613,0.999283,0.001792,-0.037809,-0.001613,0.999987,0.004760,0.037817,-0.004696,0.999274,0.037809,-0.004760,-0.999274,-0.001356,-0.000809,-0.022272,-0.001673,-0.003041,0.002378,23.177387,27.640171,-1.000000,-1.000000,-1.000000
482148608.080242,0.041580,-0.003571,-1.025177,0.037822,0.004802,0.001597,0.999283,0.001777,-0.037813,-0.001597,0.999987,0.004802,0.037821,-0.004738,0.999273,0.037813,-0.004802,-0.999273,0.000472,-0.003713,-0.021158,-0.005026,0.001705,-0.002559,23.178545,27.641331,-1.000000,-1.000000,-1.000000
482148608.089794,0.039459,-0.008545,-1.024246,0.037763,0.004829,0.001598,0.999286,0.001779,-0.037754,-0.001598,0.999987,0.004829,0.037762,-0.004766,0.999275,0.037754,-0.004829,-0.999275,-0.003070,-0.000816,-0.026283,0.003295,0.004074,0.000192,23.178545,27.641331,-1.000000,-1.000000,-1.000000
482148608.099114,0.039459,-0.008545,-1.024246,0.037749,0.004819,0.001588,0.999286,0.001769,-0.037739,-0.001588,0.999987,0.004819,0.037747,-0.004756,0.999276,0.037739,-0.004819,-0.999276,0.000835,0.000226,-0.025077,-0.003749,-0.003089,-0.003603,23.178545,27.641331,-1.000000,-1.000000,-1.000000
482148608.110049,0.036545,-0.003601,-1.022552,0.037760,0.004710,0.001572,0.999286,0.001749,-0.037751,-0.001572,0.999988,0.004710,0.037759,-0.004647,0.999276,0.037751,-0.004710,-0.999276,0.003829,0.001139,-0.025901,-0.006235,0.001709,-0.002622,23.178545,27.641331,-1.000000,-1.000000,-1.000000
482148608.118971,0.039459,-0.008545,-1.024246,0.037760,0.004710,0.001572,0.999286,0.001749,-0.037751,-0.001572,0.999988,0.004710,0.037759,-0.004647,0.999276,0.037751,-0.004710,-0.999276,0.003829,0.001139,-0.025901,-0.006235,0.001709,-0.002622,23.178545,27.641331,-1.000000,-1.000000,-1.000000
482148608.129956,0.037582,-0.004593,-1.024414,0.037753,0.004756,0.001616,0.999286,0.001794,-0.037743,-0.001616,0.999987,0.004756,0.037751,-0.004692,0.999276,0.037743,-0.004756,-0.999276,0.001716,-0.003789,-0.024970,-0.001867,-0.004205,0.005908,23.179178,27.641964,-1.000000,-1.000000,-1.000000
482148608.139935,0.043533,-0.006531,-1.025970,0.037705,0.004726,0.001617,0.999288,0.001794,-0.037695,-0.001617,0.999988,0.004726,0.037703,-0.004662,0.999278,0.037695,-0.004726,-0.999278,0.001764,-0.003819,-0.024968,-0.007635,-0.005416,0.000925,23.179178,27.641964,-1.000000,-1.000000,-1.000000
482148608.149936,0.039505,-0.004562,-1.023331,0.037640,0.004691,0.001639,0.999290,0.001815,-0.037631,-0.001639,0.999988,0.004691,0.037639,-0.004626,0.999281,0.037631,-0.004691,-0.999281,-0.000049,0.000098,-0.025133,-0.001731,-0.003034,0.003550,23.179178,27.641964,-1.000000,-1.000000,-1.000000
482148608.159907,0.039536,-0.005569,-1.024277,0.037640,0.004691,0.001639,0.999290,0.001815,-0.037631,-0.001639,0.999988,0.004691,0.037639,-0.004626,0.999281,0.037631,-0.004691,-0.999281,-0.000049,0.000098,-0.025133,-0.001731,-0.003034,0.003550,23.179178,27.641964,-1.000000,-1.000000,-1.000000
482148608.169930,0.039551,-0.006577,-1.025238,0.037723,0.004675,0.001613,0.999287,0.001788,-0.037714,-0.001613,0.999988,0.004675,0.037722,-0.004611,0.999278,0.037714,-0.004675,-0.999278,0.005819,-0.001856,-0.026693,-0.000120,-0.001904,-0.003431,23.179178,27.641964,-1.000000,-1.000000,-1.000000
482148608.179962,0.034515,-0.010574,-1.024521,0.037701,0.004662,0.001608,0.999288,0.001783,-0.037692,-0.001608,0.999988,0.004662,0.037700,-0.004598,0.999279,0.037692,-0.004662,-0.999279,0.001813,0.000100,-0.024052,-0.002668,-0.006646,-0.001150,23.180294,27.643078,-1.000000,-1.000000,-1.000000
482148608.190010,0.042328,-0.011444,-1.024048,0.037701,0.004662,0.001608,0.999288,0.001783,-0.037692,-0.001608,0.999988,0.004662,0.037700,-0.004598,0.999279,0.037692,-0.004662,-0.999279,0.001813,0.000100,-0.024052,-0.002668,-0.006646,-0.001150,23.180294,27.643078,-1.000000,-1.000000,-1.000000
482148608.199961,0.046249,-0.006454,-1.021927,0.037697,0.004588,0.001549,0.999288,0.001721,-0.037688,-0.001549,0.999988,0.004588,0.037695,-0.004527,0.999279,0.037688,-0.004588,-0.999279,0.001863,-0.001988,-0.025959,-0.006022,-0.001896,-0.006087,23.180294,27.643078,-1.000000,-1.000000,-1.000000
482148608.210155,0.046249,-0.006454,-1.021927,0.037663,0.004547,0.001522,0.999289,0.001693,-0.037654,-0.001522,0.999988,0.004547,0.037661,-0.004487,0.999281,0.037654,-0.004547,-0.999281,0.001897,-0.002029,-0.025958,-0.006156,-0.003069,-0.003729,23.180294,27.643078,-1.000000,-1.000000,-1.000000
482148608.219911,0.037643,-0.006592,-1.026321,0.037558,0.004783,0.001557,0.999293,0.001736,-0.037549,-0.001557,0.999987,0.004783,0.037557,-0.004721,0.999283,0.037549,-0.004783,-0.999283,0.004779,-0.006661,-0.024765,0.005267,-0.006596,0.008660,23.180294,27.643078,-1.000000,-1.000000,-1.000000
482148608.229914,0.038345,-0.009521,-1.022354,0.037558,0.004783,0.001557,0.999293,0.001736,-0.037549,-0.001557,0.999987,0.004783,0.037557,-0.004721,0.999283,0.037549,-0.004783,-0.999283,0.004779,-0.006661,-0.024765,0.005267,-0.006596,0.008660,23.180716,27.643501,-1.000000,-1.000000,-1.000000
482148608.240111,0.041260,-0.006485,-1.020279,0.037710,0.004804,0.001600,0.999287,0.001780,-0.037701,-0.001600,0.999987,0.004804,0.037709,-0.004740,0.999278,0.037701,-0.004804,-0.999278,0.008548,-0.001651,-0.022649,-0.005537,0.000609,0.006828,23.180716,27.643501,-1.000000,-1.000000,-1.000000
482148608.249218,0.039505,-0.008560,-1.025223,0.037626,0.004863,0.001645,0.999291,0.001827,-0.037616,-0.001645,0.999987,0.004863,0.037625,-0.004798,0.999280,0.037616,-0.004863,-0.999280,0.000729,-0.004658,-0.023074,-0.002888,-0.006959,0.002375,23.180716,27.643501,-1.000000,-1.000000,-1.000000
482148608.259931,0.045334,-0.006470,-1.022949,0.037611,0.004860,0.001635,0.999291,0.001817,-0.037601,-0.001635,0.999987,0.004860,0.037610,-0.004795,0.999281,0.037601,-0.004860,-0.999281,0.000744,-0.004661,-0.023073,-0.000206,-0.002237,-0.002249,23.180716,27.643501,-1.000000,-1.000000,-1.000000
482148608.269935,0.039551,-0.006577,-1.025238,0.037611,0.004860,0.001635,0.999291,0.001817,-0.037601,-0.001635,0.999987,0.004860,0.037610,-0.004795,0.999281,0.037601,-0.004860,-0.999281,0.000744,-0.004661,-0.023073,-0.000206,-0.002237,-0.002249,23.180716,27.643501,-1.000000,-1.000000,-1.000000
482148608.279821,0.042419,-0.007492,-1.024094,0.037622,0.004885,0.001658,0.999291,0.001840,-0.037613,-0.001658,0.999987,0.004885,0.037621,-0.004819,0.999280,0.037613,-0.004885,-0.999280,0.001892,-0.003675,-0.025942,-0.006242,-0.003403,-0.002547,23.180048,27.642834,-1.000000,-1.000000,-1.000000
482148608.289939,0.038422,-0.006561,-1.022385,0.037719,0.004878,0.001668,0.999287,0.001851,-0.037710,-0.001668,0.999987,0.004878,0.037718,-0.004811,0.999277,0.037710,-0.004878,-0.999277,0.007624,-0.001592,-0.023672,-0.004094,-0.000979,0.002233,23.180048,27.642834,-1.000000,-1.000000,-1.000000
482148608.299918,0.042480,-0.005524,-1.024109,0.037719,0.004878,0.001668,0.999287,0.001851,-0.037710,-0.001668,0.999987,0.004878,0.037718,-0.004811,0.999277,0.037710,-0.004878,-0.999277,0.007624,-0.001592,-0.023672,-0.004094,-0.000979,0.002233,23.180048,27.642834,-1.000000,-1.000000,-1.000000
482148608.309980,0.042480,-0.005524,-1.024109,0.037731,0.004823,0.001701,0.999287,0.001882,-0.037722,-0.001701,0.999987,0.004823,0.037730,-0.004756,0.999277,0.037722,-0.004823,-0.999277,0.004698,-0.002669,-0.024817,-0.007648,-0.002165,0.000888,23.180048,27.642834,-1.000000,-1.000000,-1.000000
482148608.319819,0.040558,-0.005569,-1.025208,0.037716,0.004776,0.001685,0.999287,0.001864,-0.037707,-0.001685,0.999987,0.004776,0.037715,-0.004709,0.999277,0.037707,-0.004776,-0.999277,0.004712,-0.002716,-0.024816,-0.003824,-0.001019,-0.002453,23.180048,27.642834,-1.000000,-1.000000,-1.000000
482148608.329917,0.038574,-0.004593,-1.024353,0.037736,0.004775,0.001686,0.999286,0.001865,-0.037727,-0.001686,0.999987,0.004775,0.037735,-0.004708,0.999277,0.037727,-0.004775,-0.999277,0.004754,-0.000749,-0.024832,-0.002816,-0.000990,0.001124,23.180048,27.642834,-1.000000,-1.000000,-1.000000
482148608.339912,0.041580,-0.007538,-1.027054,0.037736,0.004775,0.001686,0.999286,0.001865,-0.037727,-0.001686,0.999987,0.004775,0.037735,-0.004708,0.999277,0.037727,-0.004775,-0.999277,0.004754,-0.000749,-0.024832,-0.002816,-0.000990,0.001124,23.179342,27.642128,-1.000000,-1.000000,-1.000000
482148608.349942,0.041321,-0.010468,-1.023148,0.037758,0.004784,0.001725,0.999285,0.001904,-0.037748,-0.001725,0.999987,0.004784,0.037757,-0.004716,0.999276,0.037748,-0.004784,-0.999276,0.002809,-0.000785,-0.025932,-0.000534,-0.000978,0.003592,23.179342,27.642128,-1.000000,-1.000000,-1.000000
482148608.359934,0.043365,-0.004517,-1.022125,0.037792,0.004752,0.001747,0.999284,0.001925,-0.037782,-0.001747,0.999987,0.004752,0.037791,-0.004683,0.999275,0.037782,-0.004752,-0.999275,0.003798,-0.002786,-0.027779,0.001144,0.001332,-0.004576,23.179342,27.642128,-1.000000,-1.000000,-1.000000
482148608.370065,0.045258,-0.009430,-1.022919,0.037749,0.004727,0.001737,0.999286,0.001914,-0.037740,-0.001737,0.999987,0.004727,0.037749,-0.004658,0.999276,0.037740,-0.004727,-0.999276,0.003840,-0.002811,-0.027777,-0.001537,-0.005777,0.000079,23.179342,27.642128,-1.000000,-1.000000,-1.000000
482148608.380048,0.038528,-0.004578,-1.023392,0.037749,0.004727,0.001737,0.999286,0.001914,-0.037740,-0.001737,0.999987,0.004727,0.037749,-0.004658,0.999276,0.037740,-0.004727,-0.999276,0.003840,-0.002811,-0.027777,-0.001537,-0.005777,0.000079,23.179342,27.642128,-1.000000,-1.000000,-1.000000
482148608.389944,0.042419,-0.009491,-1.025040,0.037783,0.004765,0.001808,0.999284,0.001987,-0.037774,-0.001808,0.999987,0.004765,0.037783,-0.004694,0.999275,0.037774,-0.004765,-0.999275,0.005592,0.000249,-0.022850,-0.008850,-0.000957,0.000810,23.178745,27.641529,-1.000000,-1.000000,-1.000000
482148608.399013,0.042419,-0.009491,-1.025040,0.037875,0.004812,0.001846,0.999281,0.002027,-0.037866,-0.001846,0.999987,0.004812,0.037875,-0.004738,0.999271,0.037866,-0.004812,-0.999271,0.007392,-0.004618,-0.023647,-0.004283,-0.004512,0.005794,23.178745,27.641529,-1.000000,-1.000000,-1.000000
482148608.409977,0.035812,-0.003662,-1.027451,0.037875,0.004812,0.001846,0.999281,0.002027,-0.037866,-0.001846,0.999987,0.004812,0.037875,-0.004738,0.999271,0.037866,-0.004812,-0.999271,0.007392,-0.004618,-0.023647,-0.004283,-0.004512,0.005794,23.178745,27.641529,-1.000000,-1.000000,-1.000000
482148608.419815,0.039307,-0.006516,-1.020386,0.037820,0.004755,0.001858,0.999283,0.002037,-0.037810,-0.001858,0.999987,0.004755,0.037819,-0.004681,0.999274,0.037810,-0.004755,-0.999274,0.000718,0.000177,-0.024118,0.003098,-0.003371,0.003812,23.178745,27.641529,-1.000000,-1.000000,-1.000000
482148608.429934,0.039261,-0.010483,-1.021301,0.037815,0.004831,0.001860,0.999283,0.002041,-0.037806,-0.001860,0.999987,0.004831,0.037815,-0.004757,0.999273,0.037806,-0.004831,-0.999273,0.004614,-0.004660,-0.025766,-0.006426,-0.009316,0.001047,23.178745,27.641529,-1.000000,-1.000000,-1.000000
482148608.439949,0.039383,-0.005539,-1.021362,0.037731,0.004721,0.001871,0.999286,0.002048,-0.037722,-0.001871,0.999987,0.004721,0.037731,-0.004647,0.999277,0.037722,-0.004721,-0.999277,0.001585,-0.001794,-0.021109,-0.004012,-0.004554,0.001109,23.179226,27.642010,-1.000000,-1.000000,-1.000000
482148608.450008,0.042496,-0.006531,-1.025070,0.037731,0.004721,0.001871,0.999286,0.002048,-0.037722,-0.001871,0.999987,0.004721,0.037731,-0.004647,0.999277,0.037722,-0.004721,-0.999277,0.001585,-0.001794,-0.021109,-0.004012,-0.004554,0.001109,23.179226,27.642010,-1.000000,-1.000000,-1.000000
482148608.459930,0.038681,-0.006607,-1.027222,0.037731,0.004806,0.001872,0.999286,0.002052,-0.037721,-0.001872,0.999987,0.004806,0.037731,-0.004732,0.999277,0.037721,-0.004806,-0.999277,0.001539,-0.005676,-0.022025,-0.001661,0.000222,0.002343,23.179226,27.642010,-1.000000,-1.000000,-1.000000
482148608.470022,0.037582,-0.004593,-1.024414,0.037636,0.004780,0.001879,0.999290,0.002058,-0.037627,-0.001879,0.999987,0.004780,0.037636,-0.004705,0.999280,0.037627,-0.004780,-0.999280,0.001756,-0.000759,-0.022082,-0.003941,-0.003370,-0.000078,23.179226,27.642010,-1.000000,-1.000000,-1.000000
482148608.479982,0.042618,-0.007523,-1.027954,0.037687,0.004752,0.001938,0.999288,0.002116,-0.037677,-0.001938,0.999987,0.004752,0.037687,-0.004675,0.999279,0.037677,-0.004752,-0.999279,0.004818,-0.001779,-0.025792,-0.005685,-0.000891,0.009198,23.179226,27.642010,-1.000000,-1.000000,-1.000000
482148608.489891,0.039551,-0.004578,-1.024292,0.037687,0.004752,0.001938,0.999288,0.002116,-0.037677,-0.001938,0.999987,0.004752,0.037687,-0.004675,0.999279,0.037677,-0.004752,-0.999279,0.004818,-0.001779,-0.025792,-0.005685,-0.000891,0.009198,23.180227,27.643013,-1.000000,-1.000000,-1.000000
482148608.499987,0.036835,-0.006638,-1.029282,0.037618,0.004762,0.001951,0.999290,0.002129,-0.037609,-0.001951,0.999987,0.004762,0.037619,-0.004685,0.999281,0.037609,-0.004762,-0.999281,-0.000027,0.000169,-0.025133,-0.000264,-0.001148,-0.001092,23.180227,27.643013,-1.000000,-1.000000,-1.000000
482148608.510074,0.036835,-0.006638,-1.029282,0.037662,0.004793,0.001963,0.999289,0.002142,-0.037653,-0.001963,0.999987,0.004793,0.037662,-0.004716,0.999279,0.037653,-0.004793,-0.999279,0.004965,-0.002730,-0.028675,0.000879,-0.004722,0.000189,23.180227,27.643013,-1.000000,-1.000000,-1.000000
