Timestamp,Accel_X,Accel_Y,Accel_Z,Roll,Pitch,Yaw,RM11,RM12,RM13,RM21,RM22,RM23,RM31,RM32,RM33,GravAcc_X,GravAcc_Y,GravAcc_Z,UserAcc_X,UserAcc_Y,UserAcc_Z,RotRate_X,RotRate_Y,RotRate_Z,MagHeading,TrueHeading,HeadingAccuracy,Course,Speed
482148225.110688,0.000000,0.000000,0.000000,0.000000,0.000000,0.000000,0.000000,0.000000,0.000000,0.000000,0.000000,0.000000,0.000000,0.000000,0.000000,0.000000,0.000000,0.000000,0.000000,0.000000,0.000000,0.000000,0.000000,0.000000,0.000000,0.000000,0.000000,0.000000,0.000000
482148225.117145,0.000000,0.000000,0.000000,0.000000,0.000000,0.000000,0.000000,0.000000,0.000000,0.000000,0.000000,0.000000,0.000000,0.000000,0.000000,0.000000,0.000000,0.000000,0.000000,0.000000,0.000000,0.000000,0.000000,0.000000,0.000000,0.000000,0.000000,0.000000,0.000000
482148225.133505,0.000000,0.000000,0.000000,0.000000,0.000000,0.000000,0.000000,0.000000,0.000000,0.000000,0.000000,0.000000,0.000000,0.000000,0.000000,0.000000,0.000000,0.000000,0.000000,0.000000,0.000000,0.000000,0.000000,0.000000,0.000000,0.000000,0.000000,0.000000,0.000000
482148225.137693,0.000000,0.000000,0.000000,0.000000,0.000000,0.000000,0.000000,0.000000,0.000000,0.000000,0.000000,0.000000,0.000000,0.000000,0.000000,0.000000,0.000000,0.000000,0.000000,0.000000,0.000000,0.000000,0.000000,0.000000,0.000000,0.000000,0.000000,0.000000,0.000000
482148225.147857,0.000000,0.000000,0.000000,0.000000,0.000000,0.000000,0.000000,0.000000,0.000000,0.000000,0.000000,0.000000,0.000000,0.000000,0.000000,0.000000,0.000000,0.000000,0.000000,0.000000,0.000000,0.000000,0.000000,0.000000,0.000000,0.000000,0.000000,0.000000,0.000000
482148225.160346,0.000000,0.000000,0.000000,0.000000,0.000000,0.000000,0.000000,0.000000,0.000000,0.000000,0.000000,0.000000,0.000000,0.000000,0.000000,0.000000,0.000000,0.000000,0.000000,0.000000,0.000000,0.000000,0.000000,0.000000,0.000000,0.000000,0.000000,0.000000,0.000000
482148225.167168,0.000000,0.000000,0.000000,0.000000,0.000000,0.000000,0.000000,0.000000,0.000000,0.000000,0.000000,0.000000,0.000000,0.000000,0.000000,0.000000,0.000000,0.000000,0.000000,0.000000,0.000000,0.000000,0.000000,0.000000,0.000000,0.000000,0.000000,0.000000,0.000000
482148225.178194,0.000000,0.000000,0.000000,0.000000,0.000000,0.000000,0.000000,0.000000,0.000000,0.000000,0.000000,0.000000,0.000000,0.000000,0.000000,0.000000,0.000000,0.000000,0.000000,0.000000,0.000000,0.000000,0.000000,0.000000,0.000000,0.000000,0.000000,0.000000,0.000000
482148225.192090,0.000000,0.000000,0.000000,0.000000,0.000000,0.000000,0.000000,0.000000,0.000000,0.000000,0.000000,0.000000,0.000000,0.000000,0.000000,0.000000,0.000000,0.000000,0.000000,0.000000,0.000000,0.000000,0.000000,0.000000,0.000000,0.000000,0.000000,0.000000,0.000000
482148225.196813,0.000000,0.000000,0.000000,0.000000,0.000000,0.000000,0.000000,0.000000,0.000000,0.000000,0.000000,0.000000,0.000000,0.000000,0.000000,0.000000,0.000000,0.000000,0.000000,0.000000,0.000000,0.000000,0.000000,0.000000,0.000000,0.000000,0.000000,0.000000,0.000000
482148225.209041,0.041138,-0.004684,-1.035873,0.000000,0.000000,0.000000,0.000000,0.000000,0.000000,0.000000,0.000000,0.000000,0.000000,0.000000,0.000000,0.000000,0.000000,0.000000,0.000000,0.000000,0.000000,0.000000,0.000000,0.000000,0.000000,0.000000,0.000000,0.000000,0.000000
482148225.218179,0.040863,-0.003632,-1.030060,0.000000,0.000000,0.000000,0.000000,0.000000,0.000000,0.000000,0.000000,0.000000,0.000000,0.000000,0.000000,0.000000,0.000000,0.000000,0.000000,0.000000,0.000000,0.000000,0.000000,0.000000,0.000000,0.000000,0.000000,0.000000,0.000000
482148225.227244,0.037994,-0.006668,-1.033096,0.000000,0.000000,0.000000,0.000000,0.000000,0.000000,0.000000,0.000000,0.000000,0.000000,0.000000,0.000000,0.000000,0.000000,0.000000,0.000000,0.000000,0.000000,0.000000,0.000000,0.000000,0.000000,0.000000,0.000000,0.000000,0.000000
482148225.237660,0.038177,-0.007675,-1.036972,0.000000,0.000000,0.000000,0.000000,0.000000,0.000000,0.000000,0.000000,0.000000,0.000000,0.000000,0.000000,0.000000,0.000000,0.000000,0.000000,0.000000,0.000000,0.000000,0.000000,0.000000,0.000000,0.000000,0.000000,0.000000,0.000000
482148225.246816,0.041122,-0.005676,-1.035858,0.000000,0.000000,0.000000,0.000000,0.000000,0.000000,0.000000,0.000000,0.000000,0.000000,0.000000,0.000000,0.000000,0.000000,0.000000,0.000000,0.000000,0.000000,0.000000,0.000000,0.000000,0.000000,0.000000,0.000000,-1.000000,-1.000000
482148225.257604,0.045013,-0.006622,-1.035599,0.000000,0.000000,0.000000,0.000000,0.000000,0.000000,0.000000,0.000000,0.000000,0.000000,0.000000,0.000000,0.000000,0.000000,0.000000,0.000000,0.000000,0.000000,0.000000,0.000000,0.000000,0.000000,0.000000,0.000000,-1.000000,-1.000000
482148225.266694,0.041855,-0.005600,-1.030945,0.000000,0.000000,0.000000,0.000000,0.000000,0.000000,0.000000,0.000000,0.000000,0.000000,0.000000,0.000000,0.000000,0.000000,0.000000,0.000000,0.000000,0.000000,0.000000,0.000000,0.000000,0.000000,0.000000,0.000000,-1.000000,-1.000000
482148225.276581,0.043655,-0.007538,-1.028870,0.000000,0.000000,0.000000,0.000000,0.000000,0.000000,0.000000,0.000000,0.000000,0.000000,0.000000,0.000000,0.000000,0.000000,0.000000,0.000000,0.000000,0.000000,0.000000,0.000000,0.000000,0.000000,0.000000,0.000000,-1.000000,-1.000000
482148225.290014,0.039703,-0.004608,-1.027191,0.000000,0.000000,0.000000,0.000000,0.000000,0.000000,0.000000,0.000000,0.000000,0.000000,0.000000,0.000000,0.000000,0.000000,0.000000,0.000000,0.000000,0.000000,0.000000,0.000000,0.000000,0.000000,0.000000,0.000000,-1.000000,-1.000000
482148225.297112,0.040894,-0.006622,-1.031952,0.000000,0.000000,0.000000,0.000000,0.000000,0.000000,0.000000,0.000000,0.000000,0.000000,0.000000,0.000000,0.000000,0.000000,0.000000,0.000000,0.000000,0.000000,0.000000,0.000000,0.000000,0.000000,0.000000,0.000000,-1.000000,-1.000000
482148225.307473,0.038834,-0.006638,-1.030121,0.000000,0.000000,0.000000,0.000000,0.000000,0.000000,0.000000,0.000000,0.000000,0.000000,0.000000,0.000000,0.000000,0.000000,0.000000,0.000000,0.000000,0.000000,0.000000,0.000000,0.000000,0.000000,0.000000,0.000000,-1.000000,-1.000000
482148225.317038,0.039139,-0.006699,-1.035950,0.000000,0.000000,0.000000,0.000000,0.000000,0.000000,0.000000,0.000000,0.000000,0.000000,0.000000,0.000000,0.000000,0.000000,0.000000,0.000000,0.000000,0.000000,0.000000,0.000000,0.000000,0.000000,0.000000,0.000000,-1.000000,-1.000000
482148225.327555,0.042633,-0.005554,-1.027008,0.000000,0.000000,0.000000,0.000000,0.000000,0.000000,0.000000,0.000000,0.000000,0.000000,0.000000,0.000000,0.000000,0.000000,0.000000,0.000000,0.000000,0.000000,0.000000,0.000000,0.000000,0.000000,0.000000,0.000000,-1.000000,-1.000000
482148225.345591,0.039413,-0.008530,-1.023285,0.000000,0.000000,0.000000,0.000000,0.000000,0.000000,0.000000,0.000000,0.000000,0.000000,0.000000,0.000000,0.000000,0.000000,0.000000,0.000000,0.000000,0.000000,0.000000,0.000000,0.000000,0.000000,0.000000,0.000000,-1.000000,-1.000000
482148225.346434,0.039413,-0.008530,-1.023285,0.000000,0.000000,0.000000,0.000000,0.000000,0.000000,0.000000,0.000000,0.000000,0.000000,0.000000,0.000000,0.000000,0.000000,0.000000,0.000000,0.000000,0.000000,0.000000,0.000000,0.000000,0.000000,0.000000,0.000000,-1.000000,-1.000000
482148225.357558,0.043900,-0.002609,-1.030853,0.000000,0.000000,0.000000,0.000000,0.000000,0.000000,0.000000,0.000000,0.000000,0.000000,0.000000,0.000000,0.000000,0.000000,0.000000,0.000000,0.000000,0.000000,0.000000,0.000000,0.000000,0.000000,0.000000,0.000000,-1.000000,-1.000000
482148225.367452,0.043793,-0.006577,-1.030807,0.000000,0.000000,0.000000,0.000000,0.000000,0.000000,0.000000,0.000000,0.000000,0.000000,0.000000,0.000000,0.000000,0.000000,0.000000,0.000000,0.000000,0.000000,0.000000,0.000000,0.000000,0.000000,0.000000,0.000000,-1.000000,-1.000000
482148225.377467,0.040848,-0.008606,-1.031937,0.000000,0.000000,0.000000,0.000000,0.000000,0.000000,0.000000,0.000000,0.000000,0.000000,0.000000,0.000000,0.000000,0.000000,0.000000,0.000000,0.000000,0.000000,0.000000,0.000000,0.000000,0.000000,0.000000,0.000000,-1.000000,-1.000000
482148225.387510,0.037964,-0.001678,-1.030243,0.000000,0.000000,0.000000,0.000000,0.000000,0.000000,0.000000,0.000000,0.000000,0.000000,0.000000,0.000000,0.000000,0.000000,0.000000,0.000000,0.000000,0.000000,0.000000,0.000000,0.000000,0.000000,0.000000,0.000000,-1.000000,-1.000000
482148225.397659,0.034073,-0.004730,-1.032379,0.000000,0.000000,0.000000,0.000000,0.000000,0.000000,0.000000,0.000000,0.000000,0.000000,0.000000,0.000000,0.000000,0.000000,0.000000,0.000000,0.000000,0.000000,0.000000,0.000000,0.000000,0.000000,0.000000,0.000000,-1.000000,-1.000000
482148225.407472,0.037979,-0.005661,-1.032135,0.000000,0.000000,0.000000,0.000000,0.000000,0.000000,0.000000,0.000000,0.000000,0.000000,0.000000,0.000000,0.000000,0.000000,0.000000,0.000000,0.000000,0.000000,0.000000,0.000000,0.000000,0.000000,0.000000,0.000000,-1.000000,-1.000000
482148225.417234,0.037842,-0.004639,-1.029251,0.000000,0.000000,0.000000,0.000000,0.000000,0.000000,0.000000,0.000000,0.000000,0.000000,0.000000,0.000000,0.000000,0.000000,0.000000,0.000000,0.000000,0.000000,0.000000,0.000000,0.000000,0.000000,0.000000,0.000000,-1.000000,-1.000000
482148225.427471,0.036819,-0.004639,-1.028336,0.000000,0.000000,0.000000,0.000000,0.000000,0.000000,0.000000,0.000000,0.000000,0.000000,0.000000,0.000000,0.000000,0.000000,0.000000,0.000000,0.000000,0.000000,0.000000,0.000000,0.000000,0.000000,0.000000,0.000000,-1.000000,-1.000000
482148225.441291,0.036819,-0.004639,-1.028336,0.000000,0.000000,0.000000,0.000000,0.000000,0.000000,0.000000,0.000000,0.000000,0.000000,0.000000,0.000000,0.000000,0.000000,0.000000,0.000000,0.000000,0.000000,0.000000,0.000000,0.000000,0.000000,0.000000,0.000000,-1.000000,-1.000000
482148225.446704,0.036819,-0.004639,-1.028336,0.000000,0.000000,0.000000,0.000000,0.000000,0.000000,0.000000,0.000000,0.000000,0.000000,0.000000,0.000000,0.000000,0.000000,0.000000,0.000000,0.000000,0.000000,0.000000,0.000000,0.000000,0.000000,0.000000,0.000000,-1.000000,-1.000000
482148225.457341,0.036819,-0.004639,-1.028336,0.000000,0.000000,0.000000,0.000000,0.000000,0.000000,0.000000,0.000000,0.000000,0.000000,0.000000,0.000000,0.000000,0.000000,0.000000,0.000000,0.000000,0.000000,0.000000,0.000000,0.000000,0.000000,0.000000,0.000000,-1.000000,-1.000000
482148225.467454,0.042908,-0.006607,-1.032806,0.000000,0.000000,0.000000,0.000000,0.000000,0.000000,0.000000,0.000000,0.000000,0.000000,0.000000,0.000000,0.000000,0.000000,0.000000,0.000000,0.000000,0.000000,0.000000,0.000000,0.000000,0.000000,0.000000,0.000000,-1.000000,-1.000000
482148225.476729,0.037689,-0.006607,-1.027283,0.000000,0.000000,0.000000,0.000000,0.000000,0.000000,0.000000,0.000000,0.000000,0.000000,0.000000,0.000000,0.000000,0.000000,0.000000,0.000000,0.000000,0.000000,0.000000,0.000000,0.000000,0.000000,0.000000,0.000000,-1.000000,-1.000000
482148225.486752,0.038788,-0.006622,-1.029160,0.000000,0.000000,0.000000,0.000000,0.000000,0.000000,0.000000,0.000000,0.000000,0.000000,0.000000,0.000000,0.000000,0.000000,0.000000,0.000000,0.000000,0.000000,0.000000,0.000000,0.000000,0.000000,0.000000,0.000000,-1.000000,-1.000000
482148225.497456,0.038696,-0.007584,-1.028183,0.000000,0.000000,0.000000,0.000000,0.000000,0.000000,0.000000,0.000000,0.000000,0.000000,0.000000,0.000000,0.000000,0.000000,0.000000,0.000000,0.000000,0.000000,0.000000,0.000000,0.000000,0.000000,0.000000,0.000000,-1.000000,-1.000000
482148225.507527,0.040649,-0.010544,-1.029007,0.000000,0.000000,0.000000,0.000000,0.000000,0.000000,0.000000,0.000000,0.000000,0.000000,0.000000,0.000000,0.000000,0.000000,0.000000,0.000000,0.000000,0.000000,0.000000,0.000000,0.000000,0.000000,0.000000,0.000000,-1.000000,-1.000000
482148225.517367,0.039673,-0.010559,-1.029053,0.000000,0.000000,0.000000,0.000000,0.000000,0.000000,0.000000,0.000000,0.000000,0.000000,0.000000,0.000000,0.000000,0.000000,0.000000,0.000000,0.000000,0.000000,0.000000,0.000000,0.000000,0.000000,0.000000,0.000000,-1.000000,-1.000000
482148225.527463,0.038834,-0.006638,-1.030121,0.000000,0.000000,0.000000,0.000000,0.000000,0.000000,0.000000,0.000000,0.000000,0.000000,0.000000,0.000000,0.000000,0.000000,0.000000,0.000000,0.000000,0.000000,0.000000,0.000000,0.000000,0.000000,0.000000,0.000000,-1.000000,-1.000000
482148225.537471,0.038712,-0.005615,-1.027237,0.000000,0.000000,0.000000,0.000000,0.000000,0.000000,0.000000,0.000000,0.000000,0.000000,0.000000,0.000000,0.000000,0.000000,0.000000,0.000000,0.000000,0.000000,0.000000,0.000000,0.000000,0.000000,0.000000,0.000000,-1.000000,-1.000000
482148225.547456,0.034683,-0.005646,-1.025558,0.000000,0.000000,0.000000,0.000000,0.000000,0.000000,0.000000,0.000000,0.000000,0.000000,0.000000,0.000000,0.000000,0.000000,0.000000,0.000000,0.000000,0.000000,0.000000,0.000000,0.000000,0.000000,0.000000,0.000000,-1.000000,-1.000000
482148225.556593,0.040649,-0.007553,-1.028076,0.000000,0.000000,0.000000,0.000000,0.000000,0.000000,0.000000,0.000000,0.000000,0.000000,0.000000,0.000000,0.000000,0.000000,0.000000,0.000000,0.000000,0.000000,0.000000,0.000000,0.000000,0.000000,0.000000,0.000000,-1.000000,-1.000000
482148225.567492,0.040741,-0.002609,-1.027161,0.000000,0.000000,0.000000,0.000000,0.000000,0.000000,0.000000,0.000000,0.000000,0.000000,0.000000,0.000000,0.000000,0.000000,0.000000,0.000000,0.000000,0.000000,0.000000,0.000000,0.000000,0.000000,0.000000,0.000000,-1.000000,-1.000000
482148225.577248,0.042068,-0.006653,-1.035782,0.000000,0.000000,0.000000,0.000000,0.000000,0.000000,0.000000,0.000000,0.000000,0.000000,0.000000,0.000000,0.000000,0.000000,0.000000,0.000000,0.000000,0.000000,0.000000,0.000000,0.000000,0.000000,0.000000,0.000000,-1.000000,-1.000000
482148225.588211,0.038132,-0.005692,-1.035049,0.000000,0.000000,0.000000,0.000000,0.000000,0.000000,0.000000,0.000000,0.000000,0.000000,0.000000,0.000000,0.000000,0.000000,0.000000,0.000000,0.000000,0.000000,0.000000,0.000000,0.000000,0.000000,0.000000,0.000000,-1.000000,-1.000000
482148225.597402,0.038132,-0.005692,-1.035049,0.000000,0.000000,0.000000,0.000000,0.000000,0.000000,0.000000,0.000000,0.000000,0.000000,0.000000,0.000000,0.000000,0.000000,0.000000,0.000000,0.000000,0.000000,0.000000,0.000000,0.000000,0.000000,0.000000,0.000000,-1.000000,-1.000000
482148225.607514,0.041718,-0.006577,-1.028992,0.000000,0.000000,0.000000,0.000000,0.000000,0.000000,0.000000,0.000000,0.000000,0.000000,0.000000,0.000000,0.000000,0.000000,0.000000,0.000000,0.000000,0.000000,0.000000,0.000000,0.000000,0.000000,0.000000,0.000000,-1.000000,-1.000000
482148225.617129,0.041214,-0.001709,-1.035904,0.000000,0.000000,0.000000,0.000000,0.000000,0.000000,0.000000,0.000000,0.000000,0.000000,0.000000,0.000000,0.000000,0.000000,0.000000,0.000000,0.000000,0.000000,0.000000,0.000000,0.000000,0.000000,0.000000,0.000000,-1.000000,-1.000000
482148225.627459,0.038971,-0.005661,-1.032074,0.000000,0.000000,0.000000,0.000000,0.000000,0.000000,0.000000,0.000000,0.000000,0.000000,0.000000,0.000000,0.000000,0.000000,0.000000,0.000000,0.000000,0.000000,0.000000,0.000000,0.000000,0.000000,0.000000,0.000000,-1.000000,-1.000000
482148225.637565,0.041672,-0.008560,-1.028976,0.000000,0.000000,0.000000,0.000000,0.000000,0.000000,0.000000,0.000000,0.000000,0.000000,0.000000,0.000000,0.000000,0.000000,0.000000,0.000000,0.000000,0.000000,0.000000,0.000000,0.000000,0.000000,0.000000,0.000000,-1.000000,-1.000000
482148225.647524,0.040512,-0.005554,-1.024231,0.000000,0.000000,0.000000,0.000000,0.000000,0.000000,0.000000,0.000000,0.000000,0.000000,0.000000,0.000000,0.000000,0.000000,0.000000,0.000000,0.000000,0.000000,0.000000,0.000000,0.000000,0.000000,0.000000,0.000000,-1.000000,-1.000000
482148225.656986,0.037964,-0.007645,-1.033096,0.000000,0.000000,0.000000,0.000000,0.000000,0.000000,0.000000,0.000000,0.000000,0.000000,0.000000,0.000000,0.000000,0.000000,0.000000,0.000000,0.000000,0.000000,0.000000,0.000000,0.000000,0.000000,0.000000,0.000000,-1.000000,-1.000000
482148225.667483,0.039810,-0.006622,-1.030060,0.000000,0.000000,0.000000,0.000000,0.000000,0.000000,0.000000,0.000000,0.000000,0.000000,0.000000,0.000000,0.000000,0.000000,0.000000,0.000000,0.000000,0.000000,0.000000,0.000000,0.000000,0.000000,0.000000,0.000000,-1.000000,-1.000000
482148225.677473,0.040054,-0.005661,-1.033951,0.000000,0.000000,0.000000,0.000000,0.000000,0.000000,0.000000,0.000000,0.000000,0.000000,0.000000,0.000000,0.000000,0.000000,0.000000,0.000000,0.000000,0.000000,0.000000,0.000000,0.000000,0.000000,0.000000,0.000000,-1.000000,-1.000000
482148225.686709,0.041092,-0.006668,-1.035843,0.000000,0.000000,0.000000,0.000000,0.000000,0.000000,0.000000,0.000000,0.000000,0.000000,0.000000,0.000000,0.000000,0.000000,0.000000,0.000000,0.000000,0.000000,0.000000,0.000000,0.000000,0.000000,0.000000,0.000000,-1.000000,-1.000000
482148225.697520,0.039810,-0.004623,-1.029129,0.000000,0.000000,0.000000,0.000000,0.000000,0.000000,0.000000,0.000000,0.000000,0.000000,0.000000,0.000000,0.000000,0.000000,0.000000,0.000000,0.000000,0.000000,0.000000,0.000000,0.000000,0.000000,0.000000,0.000000,-1.000000,-1.000000
482148225.707177,0.039810,-0.004623,-1.029129,0.000000,0.000000,0.000000,0.000000,0.000000,0.000000,0.000000,0.000000,0.000000,0.000000,0.000000,0.000000,0.000000,0.000000,0.000000,0.000000,0.000000,0.000000,0.000000,0.000000,0.000000,0.000000,0.000000,0.000000,-1.000000,-1.000000
482148225.717604,0.042633,-0.005554,-1.027008,0.000000,0.000000,0.000000,0.000000,0.000000,0.000000,0.000000,0.000000,0.000000,0.000000,0.000000,0.000000,0.000000,0.000000,0.000000,0.000000,0.000000,0.000000,0.000000,0.000000,0.000000,0.000000,0.000000,0.000000,-1.000000,-1.000000
482148225.727501,0.039825,-0.001633,-1.028183,0.000000,0.000000,0.000000,0.000000,0.000000,0.000000,0.000000,0.000000,0.000000,0.000000,0.000000,0.000000,0.000000,0.000000,0.000000,0.000000,0.000000,0.000000,0.000000,0.000000,0.000000,0.000000,0.000000,0.000000,-1.000000,-1.000000
482148225.737474,0.038025,-0.003677,-1.032166,0.000000,0.000000,0.000000,0.000000,0.000000,0.000000,0.000000,0.000000,0.000000,0.000000,0.000000,0.000000,0.000000,0.000000,0.000000,0.000000,0.000000,0.000000,0.000000,0.000000,0.000000,0.000000,0.000000,0.000000,-1.000000,-1.000000
482148225.747510,0.038651,-0.007584,-1.027222,0.000000,0.000000,0.000000,0.000000,0.000000,0.000000,0.000000,0.000000,0.000000,0.000000,0.000000,0.000000,0.000000,0.000000,0.000000,0.000000,0.000000,0.000000,0.000000,0.000000,0.000000,0.000000,0.000000,0.000000,-1.000000,-1.000000
482148225.757481,0.040680,-0.006577,-1.028076,0.000000,0.000000,0.000000,0.000000,0.000000,0.000000,0.000000,0.000000,0.000000,0.000000,0.000000,0.000000,0.000000,0.000000,0.000000,0.000000,0.000000,0.000000,0.000000,0.000000,0.000000,0.000000,0.000000,0.000000,-1.000000,-1.000000
482148225.766940,0.038925,-0.005646,-1.031113,0.000000,0.000000,0.000000,0.000000,0.000000,0.000000,0.000000,0.000000,0.000000,0.000000,0.000000,0.000000,0.000000,0.000000,0.000000,0.000000,0.000000,0.000000,0.000000,0.000000,0.000000,0.000000,0.000000,0.000000,-1.000000,-1.000000
482148225.777502,0.040878,-0.005615,-1.031006,0.000000,0.000000,0.000000,0.000000,0.000000,0.000000,0.000000,0.000000,0.000000,0.000000,0.000000,0.000000,0.000000,0.000000,0.000000,0.000000,0.000000,0.000000,0.000000,0.000000,0.000000,0.000000,0.000000,0.000000,-1.000000,-1.000000
482148225.787482,0.040817,-0.003616,-1.029099,0.000000,0.000000,0.000000,0.000000,0.000000,0.000000,0.000000,0.000000,0.000000,0.000000,0.000000,0.000000,0.000000,0.000000,0.000000,0.000000,0.000000,0.000000,0.000000,0.000000,0.000000,0.000000,0.000000,0.000000,-1.000000,-1.000000
482148225.796861,0.035934,-0.004684,-1.030334,0.000000,0.000000,0.000000,0.000000,0.000000,0.000000,0.000000,0.000000,0.000000,0.000000,0.000000,0.000000,0.000000,0.000000,0.000000,0.000000,0.000000,0.000000,0.000000,0.000000,0.000000,0.000000,0.000000,0.000000,-1.000000,-1.000000
482148225.807470,0.042755,-0.006577,-1.029892,0.000000,0.000000,0.000000,0.000000,0.000000,0.000000,0.000000,0.000000,0.000000,0.000000,0.000000,0.000000,0.000000,0.000000,0.000000,0.000000,0.000000,0.000000,0.000000,0.000000,0.000000,0.000000,0.000000,0.000000,-1.000000,-1.000000
482148225.817734,0.038071,-0.003693,-1.033142,0.000000,0.000000,0.000000,0.000000,0.000000,0.000000,0.000000,0.000000,0.000000,0.000000,0.000000,0.000000,0.000000,0.000000,0.000000,0.000000,0.000000,0.000000,0.000000,0.000000,0.000000,0.000000,0.000000,0.000000,-1.000000,-1.000000
482148225.827255,0.038071,-0.003693,-1.033142,0.000000,0.000000,0.000000,0.000000,0.000000,0.000000,0.000000,0.000000,0.000000,0.000000,0.000000,0.000000,0.000000,0.000000,0.000000,0.000000,0.000000,0.000000,0.000000,0.000000,0.000000,0.000000,0.000000,0.000000,-1.000000,-1.000000
482148225.837459,0.038712,-0.003616,-1.026306,0.000000,0.000000,0.000000,0.000000,0.000000,0.000000,0.000000,0.000000,0.000000,0.000000,0.000000,0.000000,0.000000,0.000000,0.000000,0.000000,0.000000,0.000000,0.000000,0.000000,0.000000,0.000000,0.000000,0.000000,-1.000000,-1.000000
482148225.847465,0.039841,-0.005630,-1.030075,0.000000,0.000000,0.000000,0.000000,0.000000,0.000000,0.000000,0.000000,0.000000,0.000000,0.000000,0.000000,0.000000,0.000000,0.000000,0.000000,0.000000,0.000000,0.000000,0.000000,0.000000,0.000000,0.000000,0.000000,-1.000000,-1.000000
482148225.857670,0.037903,-0.006638,-1.031158,0.000000,0.000000,0.000000,0.000000,0.000000,0.000000,0.000000,0.000000,0.000000,0.000000,0.000000,0.000000,0.000000,0.000000,0.000000,0.000000,0.000000,0.000000,0.000000,0.000000,0.000000,0.000000,0.000000,0.000000,-1.000000,-1.000000
482148225.867023,0.039627,-0.007568,-1.027161,0.000000,0.000000,0.000000,0.000000,0.000000,0.000000,0.000000,0.000000,0.000000,0.000000,0.000000,0.000000,0.000000,0.000000,0.000000,0.000000,0.000000,0.000000,0.000000,0.000000,0.000000,0.000000,0.000000,0.000000,-1.000000,-1.000000
482148225.877150,0.037781,-0.004623,-1.028275,0.000000,0.000000,0.000000,0.000000,0.000000,0.000000,0.000000,0.000000,0.000000,0.000000,0.000000,0.000000,0.000000,0.000000,0.000000,0.000000,0.000000,0.000000,0.000000,0.000000,0.000000,0.000000,0.000000,0.000000,-1.000000,-1.000000
482148225.887237,0.041794,-0.003601,-1.029037,0.000000,0.000000,0.000000,0.000000,0.000000,0.000000,0.000000,0.000000,0.000000,0.000000,0.000000,0.000000,0.000000,0.000000,0.000000,0.000000,0.000000,0.000000,0.000000,0.000000,0.000000,0.000000,0.000000,0.000000,-1.000000,-1.000000
482148225.896604,0.036575,-0.008591,-1.025406,0.000000,0.000000,0.000000,0.000000,0.000000,0.000000,0.000000,0.000000,0.000000,0.000000,0.000000,0.000000,0.000000,0.000000,0.000000,0.000000,0.000000,0.000000,0.000000,0.000000,0.000000,0.000000,0.000000,0.000000,-1.000000,-1.000000
482148225.907460,0.040924,-0.005630,-1.031967,0.000000,0.000000,0.000000,0.000000,0.000000,0.000000,0.000000,0.000000,0.000000,0.000000,0.000000,0.000000,0.000000,0.000000,0.000000,0.000000,0.000000,0.000000,0.000000,0.000000,0.000000,0.000000,0.000000,0.000000,-1.000000,-1.000000
482148225.917504,0.039185,-0.004715,-1.035980,0.000000,0.000000,0.000000,0.000000,0.000000,0.000000,0.000000,0.000000,0.000000,0.000000,0.000000,0.000000,0.000000,0.000000,0.000000,0.000000,0.000000,0.000000,0.000000,0.000000,0.000000,0.000000,0.000000,0.000000,-1.000000,-1.000000
482148225.927927,0.038086,-0.005676,-1.034073,0.041445,0.010204,-0.000218,0.999141,0.000205,-0.041431,0.000218,0.999948,0.010204,0.041431,-0.010205,0.999089,0.041431,-0.010204,-0.999089,-0.004856,0.001614,-0.026317,0.000030,0.004670,-0.001474,0.000000,0.000000,0.000000,-1.000000,-1.000000
482148225.937733,0.036987,-0.004669,-1.031250,0.041263,0.009780,-0.000203,0.999149,0.000200,-0.041249,0.000203,0.999952,0.009780,0.041249,-0.009780,0.999101,0.041249,-0.009780,-0.999101,-0.000325,0.004150,-0.032866,0.010702,-0.004893,0.002732,0.000000,0.000000,0.000000,-1.000000,-1.000000
482148225.947289,0.036987,-0.004669,-1.031250,0.041263,0.009780,-0.000203,0.999149,0.000200,-0.041249,0.000203,0.999952,0.009780,0.041249,-0.009780,0.999101,0.041249,-0.009780,-0.999101,-0.000325,0.004150,-0.032866,0.010702,-0.004893,0.002732,0.000000,0.000000,0.000000,-1.000000,-1.000000
482148225.956799,0.041870,-0.006607,-1.031891,0.040863,0.009228,-0.000142,0.999165,0.000235,-0.040850,0.000142,0.999957,0.009228,0.040851,-0.009226,0.999123,0.040850,-0.009228,-0.999123,-0.001666,0.004513,-0.036858,-0.003928,-0.003618,0.004305,0.000000,0.000000,0.000000,-1.000000,-1.000000
482148225.967529,0.035767,-0.005646,-1.027420,0.040088,0.008521,-0.000080,0.999197,0.000261,-0.040076,0.000080,0.999964,0.008521,0.040076,-0.008518,0.999160,0.040076,-0.008521,-0.999160,-0.003088,0.003852,-0.032090,0.003313,0.003509,0.004586,0.000000,0.000000,0.000000,-1.000000,-1.000000
482148225.977467,0.041870,-0.008606,-1.032852,0.040146,0.008323,-0.000051,0.999194,0.000283,-0.040133,0.000051,0.999965,0.008323,0.040134,-0.008319,0.999160,0.040133,-0.008323,-0.999160,0.001737,0.001716,-0.032731,-0.003934,0.002347,0.004225,0.000000,0.000000,0.000000,-1.000000,-1.000000
482148225.987485,0.042938,-0.005615,-1.032822,0.040146,0.008323,-0.000051,0.999194,0.000283,-0.040133,0.000051,0.999965,0.008323,0.040134,-0.008319,0.999160,0.040133,-0.008323,-0.999160,0.001737,0.001716,-0.032731,-0.003934,0.002347,0.004225,0.000000,0.000000,0.000000,-1.000000,-1.000000
482148225.997497,0.039734,-0.003616,-1.027206,0.039847,0.008141,-0.000064,0.999206,0.000260,-0.039835,0.000064,0.999967,0.008141,0.039836,-0.008137,0.999173,0.039835,-0.008141,-0.999173,-0.004068,0.002495,-0.028247,0.003579,0.002270,-0.000083,0.000000,0.000000,0.000000,-1.000000,-1.000000
482148226.007616,0.038773,-0.004623,-1.028214,0.039871,0.008175,-0.000028,0.999205,0.000298,-0.039859,0.000028,0.999967,0.008175,0.039860,-0.008169,0.999172,0.039859,-0.008175,-0.999172,0.002011,-0.000431,-0.033680,0.000964,-0.003655,0.003385,0.000000,0.000000,0.000000,-1.000000,-1.000000
482148226.017609,0.041046,-0.002670,-1.032974,0.039912,0.007754,0.000070,0.999204,0.000379,-0.039901,-0.000070,0.999970,0.007754,0.039902,-0.007745,0.999174,0.039901,-0.007754,-0.999174,-0.000167,0.004138,-0.028033,0.010753,-0.000136,0.001497,0.000000,0.000000,0.000000,-1.000000,-1.000000
482148226.026528,0.041992,-0.001648,-1.031952,0.039912,0.007754,0.000070,0.999204,0.000379,-0.039901,-0.000070,0.999970,0.007754,0.039902,-0.007745,0.999174,0.039901,-0.007754,-0.999174,-0.000167,0.004138,-0.028033,0.010753,-0.000136,0.001497,0.000000,0.000000,0.000000,-1.000000,-1.000000
482148226.037515,0.043915,-0.005615,-1.032761,0.039777,0.007594,0.000074,0.999209,0.000376,-0.039766,-0.000074,0.999971,0.007594,0.039767,-0.007585,0.999180,0.039766,-0.007594,-0.999180,-0.000993,0.002971,-0.029033,0.001086,0.004677,0.000931,0.000000,0.000000,0.000000,-1.000000,-1.000000
482148226.047491,0.037842,-0.004639,-1.029251,0.039855,0.007341,0.000118,0.999206,0.000410,-0.039843,-0.000118,0.999973,0.007341,0.039845,-0.007331,0.999179,0.039843,-0.007341,-0.999179,0.001203,0.004671,-0.033795,-0.000194,0.005886,0.002023,0.000000,0.000000,0.000000,-1.000000,-1.000000
482148226.057227,0.037842,-0.004639,-1.029251,0.039855,0.007341,0.000118,0.999206,0.000410,-0.039843,-0.000118,0.999973,0.007341,0.039845,-0.007331,0.999179,0.039843,-0.007341,-0.999179,0.001203,0.004671,-0.033795,-0.000194,0.005886,0.002023,0.000000,0.000000,0.000000,-1.000000,-1.000000
482148226.067457,0.038986,-0.006668,-1.033035,0.039870,0.007018,0.000126,0.999205,0.000406,-0.039858,-0.000126,0.999975,0.007018,0.039860,-0.007007,0.999181,0.039858,-0.007018,-0.999181,0.002134,0.005370,-0.032771,-0.002480,-0.003673,-0.000319,0.000000,0.000000,0.000000,-1.000000,-1.000000
482148226.077435,0.037613,-0.005600,-1.025375,0.039922,0.006859,0.000186,0.999203,0.000460,-0.039910,-0.000186,0.999976,0.006859,0.039912,-0.006846,0.999180,0.039910,-0.006859,-0.999180,-0.002068,0.002220,-0.030071,0.002276,0.005865,0.000977,0.000000,0.000000,0.000000,-1.000000,-1.000000
482148226.087446,0.041992,-0.003647,-1.032913,0.039888,0.006822,0.000211,0.999205,0.000483,-0.039876,-0.000211,0.999977,0.006822,0.039878,-0.006809,0.999181,0.039876,-0.006822,-0.999181,-0.000890,0.000154,-0.033854,-0.000409,0.008301,0.005504,0.000000,0.000000,0.000000,-1.000000,-1.000000
482148226.097485,0.043793,-0.006577,-1.030807,0.039888,0.006822,0.000211,0.999205,0.000483,-0.039876,-0.000211,0.999977,0.006822,0.039878,-0.006809,0.999181,0.039876,-0.006822,-0.999181,-0.000890,0.000154,-0.033854,-0.000409,0.008301,0.005504,0.000000,0.000000,0.000000,-1.000000,-1.000000
482148226.107467,0.039917,-0.006638,-1.031998,0.039747,0.006747,0.000320,0.999210,0.000588,-0.039735,-0.000320,0.999977,0.006747,0.039738,-0.006729,0.999187,0.039735,-0.006747,-0.999187,-0.002122,0.001147,-0.026188,0.004557,0.001094,0.003508,0.000000,0.000000,0.000000,-1.000000,-1.000000
482148226.117443,0.044113,-0.003662,-1.035706,0.039768,0.006633,0.000351,0.999209,0.000614,-0.039756,-0.000351,0.999978,0.006633,0.039760,-0.006614,0.999187,0.039756,-0.006633,-0.999187,0.002236,0.002986,-0.033726,0.008043,-0.003674,0.006103,0.000000,0.000000,0.000000,-1.000000,-1.000000
482148226.127606,0.037689,-0.006607,-1.027283,0.039768,0.006633,0.000351,0.999209,0.000614,-0.039756,-0.000351,0.999978,0.006633,0.039760,-0.006614,0.999187,0.039756,-0.006633,-0.999187,0.002236,0.002986,-0.033726,0.008043,-0.003674,0.006103,0.000000,0.000000,0.000000,-1.000000,-1.000000
482148226.137519,0.039139,-0.006699,-1.035950,0.039833,0.006709,0.000385,0.999207,0.000652,-0.039822,-0.000385,0.999977,0.006709,0.039826,-0.006688,0.999184,0.039822,-0.006709,-0.999184,0.000095,0.000071,-0.032813,0.000527,-0.003599,0.010411,0.000000,0.000000,0.000000,-1.000000,-1.000000
482148226.147473,0.042984,-0.003632,-1.032852,0.039936,0.006598,0.000420,0.999202,0.000683,-0.039924,-0.000420,0.999978,0.006598,0.039928,-0.006576,0.999181,0.039924,-0.006598,-0.999181,0.004189,0.002936,-0.036525,-0.000085,-0.000103,-0.000241,0.000000,0.000000,0.000000,-1.000000,-1.000000
482148226.156718,0.042572,-0.007523,-1.026993,0.039791,0.006622,0.000476,0.999208,0.000739,-0.039779,-0.000476,0.999978,0.006622,0.039783,-0.006598,0.999187,0.039779,-0.006622,-0.999187,-0.000641,-0.000077,-0.036763,0.005953,0.003443,0.000025,0.000000,0.000000,0.000000,-1.000000,-1.000000
482148226.167703,0.036926,-0.004669,-1.030273,0.039791,0.006622,0.000476,0.999208,0.000739,-0.039779,-0.000476,0.999978,0.006622,0.039783,-0.006598,0.999187,0.039779,-0.006622,-0.999187,-0.000641,-0.000077,-0.036763,0.005953,0.003443,0.000025,0.000000,0.000000,0.000000,-1.000000,-1.000000
482148226.176915,0.036926,-0.004669,-1.030273,0.039740,0.006680,0.000577,0.999210,0.000842,-0.039729,-0.000577,0.999978,0.006680,0.039734,-0.006652,0.999188,0.039729,-0.006680,-0.999188,-0.000590,-0.000018,-0.036762,0.007701,-0.006011,0.011991,0.000000,0.000000,0.000000,-1.000000,-1.000000
482148226.187808,0.038940,-0.006653,-1.032059,0.039875,0.006680,0.000703,0.999205,0.000968,-0.039864,-0.000703,0.999977,0.006679,0.039869,-0.006646,0.999183,0.039864,-0.006679,-0.999183,0.002708,-0.000843,-0.027810,0.003197,0.005900,0.005724,0.000000,0.000000,0.000000,-1.000000,-1.000000
482148226.197514,0.040863,-0.003632,-1.030060,0.039875,0.006680,0.000703,0.999205,0.000968,-0.039864,-0.000703,0.999977,0.006679,0.039869,-0.006646,0.999183,0.039864,-0.006679,-0.999183,0.002708,-0.000843,-0.027810,0.003197,0.005900,0.005724,0.000000,0.000000,0.000000,-1.000000,-1.000000
482148226.207585,0.039047,-0.006668,-1.033997,0.039723,0.006626,0.000750,0.999211,0.001013,-0.039712,-0.000750,0.999978,0.006626,0.039718,-0.006591,0.999189,0.039712,-0.006626,-0.999189,-0.002786,0.001956,-0.031084,0.002054,-0.003663,0.004617,0.000000,0.000000,0.000000,-1.000000,-1.000000
482148226.216897,0.037689,-0.004608,-1.026352,0.039685,0.006562,0.000784,0.999212,0.001044,-0.039673,-0.000784,0.999978,0.006562,0.039679,-0.006526,0.999191,0.039673,-0.006562,-0.999191,0.001190,0.002930,-0.030869,0.002514,0.001033,-0.003646,0.000000,0.000000,0.000000,-1.000000,-1.000000
482148226.227629,0.040222,-0.004700,-1.036880,0.039738,0.006560,0.000824,0.999210,0.001084,-0.039727,-0.000824,0.999978,0.006560,0.039733,-0.006522,0.999189,0.039727,-0.006560,-0.999189,0.001136,0.002928,-0.030871,0.003051,0.004714,0.008082,0.000000,0.000000,0.000000,-1.000000,-1.000000
482148226.237540,0.037796,-0.006622,-1.029221,0.039738,0.006560,0.000824,0.999210,0.001084,-0.039727,-0.000824,0.999978,0.006560,0.039733,-0.006522,0.999189,0.039727,-0.006560,-0.999189,0.001136,0.002928,-0.030871,0.003051,0.004714,0.008082,0.000000,0.000000,0.000000,-1.000000,-1.000000
482148226.247518,0.039703,-0.006592,-1.028122,0.039700,0.006525,0.000874,0.999211,0.001132,-0.039689,-0.000874,0.999978,0.006525,0.039696,-0.006485,0.999191,0.039689,-0.006525,-0.999191,-0.002000,0.001917,-0.027161,-0.000243,0.005859,0.002021,0.000000,0.000000,0.000000,-1.000000,-1.000000
482148226.257538,0.042755,-0.006577,-1.029892,0.039702,0.006489,0.000866,0.999211,0.001123,-0.039691,-0.000866,0.999979,0.006489,0.039697,-0.006449,0.999191,0.039691,-0.006489,-0.999191,0.000531,0.001789,-0.037690,0.004852,0.004600,-0.002397,0.000000,0.000000,0.000000,-1.000000,-1.000000
482148226.267569,0.036850,-0.007629,-1.030243,0.039652,0.006529,0.000879,0.999213,0.001137,-0.039640,-0.000879,0.999978,0.006529,0.039647,-0.006489,0.999193,0.039640,-0.006529,-0.999193,0.000063,-0.000063,-0.028929,0.000960,0.004648,0.002100,0.000000,0.000000,0.000000,-1.000000,-1.000000
482148226.277502,0.042816,-0.010559,-1.032761,0.039652,0.006529,0.000879,0.999213,0.001137,-0.039640,-0.000879,0.999978,0.006529,0.039647,-0.006489,0.999193,0.039640,-0.006529,-0.999193,0.000063,-0.000063,-0.028929,0.000960,0.004648,0.002100,0.000000,0.000000,0.000000,-1.000000,-1.000000
482148226.287449,0.042816,-0.010559,-1.032761,0.039694,0.006572,0.000876,0.999212,0.001136,-0.039683,-0.000876,0.999978,0.006572,0.039689,-0.006532,0.999191,0.039683,-0.006572,-0.999191,0.000021,-0.000020,-0.028931,0.004785,0.002214,-0.001194,0.000000,0.000000,0.000000,-1.000000,-1.000000
482148226.297602,0.038818,-0.005630,-1.029175,0.039692,0.006593,0.000909,0.999212,0.001170,-0.039681,-0.000909,0.999978,0.006593,0.039688,-0.006552,0.999191,0.039681,-0.006593,-0.999191,-0.002831,-0.001037,-0.031052,-0.003735,0.002254,-0.000463,0.000000,0.000000,0.000000,-1.000000,-1.000000
482148226.307547,0.040543,-0.010529,-1.027069,0.039692,0.006593,0.000909,0.999212,0.001170,-0.039681,-0.000909,0.999978,0.006593,0.039688,-0.006552,0.999191,0.039681,-0.006593,-0.999191,-0.002831,-0.001037,-0.031052,-0.003735,0.002254,-0.000463,0.000000,0.000000,0.000000,-1.000000,-1.000000
482148226.317426,0.040771,-0.005600,-1.029068,0.039758,0.006697,0.000934,0.999209,0.001199,-0.039746,-0.000934,0.999977,0.006697,0.039753,-0.006654,0.999187,0.039746,-0.006697,-0.999187,0.003070,-0.003862,-0.033573,-0.000369,-0.000102,0.004443,0.000000,0.000000,0.000000,-1.000000,-1.000000
482148226.327557,0.044708,-0.004562,-1.028839,0.039727,0.006699,0.000982,0.999210,0.001248,-0.039716,-0.000982,0.999977,0.006699,0.039723,-0.006655,0.999189,0.039716,-0.006699,-0.999189,0.000827,-0.003829,-0.027881,-0.006068,0.002252,-0.001759,0.000000,0.000000,0.000000,-1.000000,-1.000000
482148226.337529,0.037064,-0.003693,-1.032227,0.039786,0.006681,0.001028,0.999208,0.001292,-0.039775,-0.001028,0.999977,0.006681,0.039783,-0.006635,0.999186,0.039775,-0.006681,-0.999186,0.000767,-0.003848,-0.027883,0.004265,0.008258,0.008097,0.000000,0.000000,0.000000,-1.000000,-1.000000
482148226.347675,0.042816,-0.008575,-1.031815,0.039786,0.006681,0.001028,0.999208,0.001292,-0.039775,-0.001028,0.999977,0.006681,0.039783,-0.006635,0.999186,0.039775,-0.006681,-0.999186,0.000767,-0.003848,-0.027883,0.004265,0.008258,0.008097,0.000000,0.000000,0.000000,-1.000000,-1.000000
482148226.357488,0.042923,-0.002609,-1.030914,0.039943,0.006658,0.001093,0.999202,0.001358,-0.039931,-0.001093,0.999977,0.006658,0.039939,-0.006609,0.999180,0.039931,-0.006658,-0.999180,0.004777,0.002096,-0.029659,0.001236,0.001027,-0.002538,0.000000,0.000000,0.000000,-1.000000,-1.000000
482148226.367532,0.041687,-0.007553,-1.028992,0.039881,0.006613,0.001102,0.999204,0.001365,-0.039870,-0.001102,0.999978,0.006613,0.039878,-0.006563,0.999183,0.039870,-0.006613,-0.999183,-0.002806,0.002920,-0.033044,0.004582,0.003429,0.002304,0.000000,0.000000,0.000000,-1.000000,-1.000000
482148226.377484,0.036850,-0.003647,-1.028351,0.040089,0.006637,0.001129,0.999196,0.001394,-0.040077,-0.001129,0.999977,0.006637,0.040086,-0.006587,0.999175,0.040077,-0.006637,-0.999175,0.002846,0.004028,-0.031740,0.002224,0.008212,0.000943,0.000000,0.000000,0.000000,-1.000000,-1.000000
482148226.387561,0.038895,-0.006638,-1.031097,0.040089,0.006637,0.001129,0.999196,0.001394,-0.040077,-0.001129,0.999977,0.006637,0.040086,-0.006587,0.999175,0.040077,-0.006637,-0.999175,0.002846,0.004028,-0.031740,0.002224,0.008212,0.000943,0.000000,0.000000,0.000000,-1.000000,-1.000000
482148226.396890,0.038895,-0.006638,-1.031097,0.040082,0.006664,0.001138,0.999196,0.001404,-0.040070,-0.001138,0.999977,0.006664,0.040079,-0.006613,0.999175,0.040070,-0.006664,-0.999175,0.002852,0.004054,-0.031740,0.004709,0.001030,-0.000008,0.000000,0.000000,0.000000,-1.000000,-1.000000
482148226.407586,0.042664,-0.002563,-1.026077,0.040028,0.006614,0.001128,0.999198,0.001392,-0.040016,-0.001128,0.999977,0.006614,0.040025,-0.006563,0.999177,0.040016,-0.006614,-0.999177,-0.003166,0.002967,-0.029174,0.000942,0.005829,0.002083,0.000000,0.000000,0.000000,-1.000000,-1.000000
482148226.416678,0.039688,-0.005600,-1.027176,0.040028,0.006614,0.001128,0.999198,0.001392,-0.040016,-0.001128,0.999977,0.006614,0.040025,-0.006563,0.999177,0.040016,-0.006614,-0.999177,-0.003166,0.002967,-0.029174,0.000942,0.005829,0.002083,0.000000,0.000000,0.000000,-1.000000,-1.000000
482148226.427438,0.042999,-0.005615,-1.033783,0.039994,0.006635,0.001148,0.999199,0.001412,-0.039982,-0.001148,0.999977,0.006635,0.039991,-0.006584,0.999178,0.039982,-0.006635,-0.999178,-0.001088,-0.000003,-0.031919,0.005641,-0.001340,0.004772,0.000000,0.000000,0.000000,-1.000000,-1.000000
482148226.436943,0.039047,-0.000702,-1.031174,0.040037,0.006596,0.001182,0.999198,0.001445,-0.040025,-0.001182,0.999978,0.006596,0.040034,-0.006543,0.999177,0.040025,-0.006596,-0.999177,-0.000337,0.000996,-0.027999,0.006160,-0.003811,-0.004567,0.000000,0.000000,0.000000,-1.000000,-1.000000
482148226.447064,0.041931,-0.008606,-1.033813,0.040035,0.006599,0.001223,0.999198,0.001486,-0.040024,-0.001223,0.999977,0.006599,0.040033,-0.006545,0.999177,0.040024,-0.006599,-0.999177,-0.000336,0.000999,-0.027999,0.000590,-0.001288,0.008034,0.000000,0.000000,0.000000,-1.000000,-1.000000
482148226.457444,0.035980,-0.005676,-1.031296,0.040035,0.006599,0.001223,0.999198,0.001486,-0.040024,-0.001223,0.999977,0.006599,0.040033,-0.006545,0.999177,0.040024,-0.006599,-0.999177,-0.000336,0.000999,-0.027999,0.000590,-0.001288,0.008034,0.000000,0.000000,0.000000,-1.000000,-1.000000
482148226.467527,0.040146,-0.005692,-1.035904,0.040076,0.006358,0.001228,0.999196,0.001482,-0.040064,-0.001228,0.999979,0.006358,0.040073,-0.006304,0.999177,0.040064,-0.006358,-0.999177,-0.001017,0.005656,-0.031997,0.000900,-0.000149,0.002161,0.000000,0.000000,0.000000,-1.000000,-1.000000
482148226.477456,0.042892,-0.003601,-1.030914,0.040064,0.006433,0.001248,0.999196,0.001504,-0.040052,-0.001248,0.999979,0.006432,0.040061,-0.006377,0.999177,0.040052,-0.006432,-0.999177,0.001879,-0.002173,-0.034637,0.003593,-0.006168,-0.002319,0.000000,0.000000,0.000000,-1.000000,-1.000000
482148226.487434,0.040161,-0.004700,-1.035919,0.039982,0.006403,0.001287,0.999200,0.001542,-0.039970,-0.001287,0.999979,0.006403,0.039979,-0.006347,0.999180,0.039970,-0.006403,-0.999180,0.000176,0.000712,-0.036724,-0.005004,-0.001361,-0.000480,0.000000,0.000000,0.000000,-1.000000,-1.000000
482148226.497449,0.042068,-0.006653,-1.035782,0.039982,0.006403,0.001287,0.999200,0.001542,-0.039970,-0.001287,0.999979,0.006403,0.039979,-0.006347,0.999180,0.039970,-0.006403,-0.999180,0.000176,0.000712,-0.036724,-0.005004,-0.001361,-0.000480,0.000000,0.000000,0.000000,-1.000000,-1.000000
482148226.507436,0.045578,-0.006516,-1.027771,0.040051,0.006303,0.001337,0.999197,0.001589,-0.040040,-0.001337,0.999979,0.006303,0.040049,-0.006244,0.999178,0.040040,-0.006303,-0.999178,0.002853,0.002702,-0.031736,-0.004210,0.001090,0.006578,0.000000,0.000000,0.000000,-1.000000,-1.000000
482148226.516858,0.045578,-0.006516,-1.027771,0.040108,0.006337,0.001452,0.999194,0.001705,-0.040097,-0.001452,0.999979,0.006337,0.040106,-0.006273,0.999176,0.040097,-0.006337,-0.999176,0.000065,0.001637,-0.036743,0.008062,0.001003,0.003692,0.000000,0.000000,0.000000,-1.000000,-1.000000
482148226.527277,0.037781,-0.004623,-1.028275,0.040108,0.006337,0.001452,0.999194,0.001705,-0.040097,-0.001452,0.999979,0.006337,0.040106,-0.006273,0.999176,0.040097,-0.006337,-0.999176,0.000065,0.001637,-0.036743,0.008062,0.001003,0.003692,0.000000,0.000000,0.000000,-1.000000,-1.000000
482148226.537523,0.042816,-0.006577,-1.030869,0.040145,0.006375,0.001509,0.999193,0.001763,-0.040134,-0.001509,0.999979,0.006375,0.040144,-0.006309,0.999174,0.040134,-0.006375,-0.999174,0.001935,-0.000278,-0.036608,0.001955,0.004621,0.004502,0.000000,0.000000,0.000000,-1.000000,-1.000000
482148226.547119,0.037109,-0.003708,-1.033203,0.040170,0.006386,0.001483,0.999192,0.001739,-0.040158,-0.001483,0.999978,0.006386,0.040169,-0.006321,0.999173,0.040158,-0.006386,-0.999173,-0.002378,0.001762,-0.029102,0.004765,0.005744,-0.002417,0.000000,0.000000,0.000000,-1.000000,-1.000000
482148226.557482,0.038910,-0.009628,-1.033005,0.040276,0.006416,0.001507,0.999188,0.001764,-0.040264,-0.001507,0.999978,0.006416,0.040275,-0.006350,0.999168,0.040264,-0.006416,-0.999168,0.002552,-0.000160,-0.031700,0.003489,0.008152,-0.001340,0.000000,0.000000,0.000000,-1.000000,-1.000000
482148226.567660,0.040146,-0.001694,-1.033997,0.040276,0.006416,0.001507,0.999188,0.001764,-0.040264,-0.001507,0.999978,0.006416,0.040275,-0.006350,0.999168,0.040264,-0.006416,-0.999168,0.002552,-0.000160,-0.031700,0.003489,0.008152,-0.001340,0.000000,0.000000,0.000000,-1.000000,-1.000000
482148226.576921,0.041962,-0.004639,-1.032898,0.040290,0.006389,0.001556,0.999187,0.001812,-0.040278,-0.001556,0.999978,0.006389,0.040289,-0.006321,0.999168,0.040278,-0.006389,-0.999168,-0.003169,0.002681,-0.034035,0.001065,0.000983,-0.001370,0.000000,0.000000,0.000000,-1.000000,-1.000000
482148226.587617,0.040878,-0.005615,-1.031006,0.040264,0.006495,0.001533,0.999188,0.001793,-0.040252,-0.001533,0.999978,0.006495,0.040263,-0.006428,0.999168,0.040252,-0.006495,-0.999168,-0.001342,-0.003133,-0.033836,0.003357,0.004564,0.001051,0.000000,0.000000,0.000000,-1.000000,-1.000000
482148226.597488,0.035065,-0.004715,-1.032333,0.040278,0.006316,0.001571,0.999187,0.001824,-0.040266,-0.001571,0.999979,0.006316,0.040277,-0.006248,0.999169,0.040266,-0.006316,-0.999169,0.001696,0.001677,-0.033729,-0.002574,-0.001404,-0.001527,0.000000,0.000000,0.000000,-1.000000,-1.000000
482148226.607628,0.039886,-0.007614,-1.031998,0.040278,0.006316,0.001571,0.999187,0.001824,-0.040266,-0.001571,0.999979,0.006316,0.040277,-0.006248,0.999169,0.040266,-0.006316,-0.999169,0.001696,0.001677,-0.033729,-0.002574,-0.001404,-0.001527,0.000000,0.000000,0.000000,-1.000000,-1.000000
482148226.617470,0.040131,-0.002686,-1.033981,0.040271,0.006300,0.001558,0.999188,0.001811,-0.040260,-0.001558,0.999979,0.006300,0.040270,-0.006232,0.999169,0.040260,-0.006300,-0.999169,0.000619,0.000685,-0.031836,0.004670,-0.001437,-0.001151,0.000000,0.000000,0.000000,-1.000000,-1.000000
482148226.627161,0.046692,-0.007507,-1.030640,0.040183,0.006227,0.001564,0.999191,0.001813,-0.040171,-0.001564,0.999979,0.006227,0.040182,-0.006159,0.999173,0.040171,-0.006227,-0.999173,-0.005107,0.001512,-0.033160,-0.000440,0.008148,0.003155,0.000000,0.000000,0.000000,-1.000000,-1.000000
482148226.636931,0.046692,-0.007507,-1.030640,0.040183,0.006227,0.001564,0.999191,0.001813,-0.040171,-0.001564,0.999979,0.006227,0.040182,-0.006159,0.999173,0.040171,-0.006227,-0.999173,-0.005107,0.001512,-0.033160,-0.000440,0.008148,0.003155,0.000000,0.000000,0.000000,-1.000000,-1.000000
482148226.647606,0.043015,-0.002640,-1.032852,0.040178,0.006267,0.001648,0.999191,0.001899,-0.040166,-0.001648,0.999979,0.006267,0.040177,-0.006195,0.999173,0.040166,-0.006267,-0.999173,-0.000280,-0.001347,-0.032824,0.000373,-0.000156,0.010358,0.000000,0.000000,0.000000,-1.000000,-1.000000
482148226.657528,0.042801,-0.004593,-1.029922,0.040308,0.006203,0.001637,0.999186,0.001886,-0.040296,-0.001637,0.999979,0.006203,0.040307,-0.006132,0.999169,0.040296,-0.006203,-0.999169,0.006395,-0.001304,-0.031471,-0.001517,-0.001407,0.000878,0.000000,0.000000,0.000000,-1.000000,-1.000000
482148226.667553,0.039871,-0.002640,-1.029144,0.040342,0.006165,0.001722,0.999184,0.001969,-0.040330,-0.001722,0.999979,0.006165,0.040341,-0.006091,0.999167,0.040330,-0.006165,-0.999167,0.002685,0.003525,-0.033685,0.004171,0.001012,0.007015,0.000000,0.000000,0.000000,-1.000000,-1.000000
482148226.677563,0.037704,-0.010574,-1.029175,0.040342,0.006165,0.001722,0.999184,0.001969,-0.040330,-0.001722,0.999979,0.006165,0.040341,-0.006091,0.999167,0.040330,-0.006165,-0.999167,0.002685,0.003525,-0.033685,0.004171,0.001012,0.007015,0.000000,0.000000,0.000000,-1.000000,-1.000000
482148226.687650,0.038727,-0.004623,-1.027252,0.040375,0.006177,0.001739,0.999183,0.001987,-0.040364,-0.001739,0.999979,0.006176,0.040375,-0.006101,0.999166,0.040364,-0.006176,-0.999166,0.002437,0.001584,-0.030757,0.010739,-0.000286,-0.002025,0.000000,0.000000,0.000000,-1.000000,-1.000000
482148226.697533,0.044998,-0.009583,-1.036530,0.040396,0.006108,0.001742,0.999182,0.001987,-0.040384,-0.001742,0.999980,0.006108,0.040395,-0.006032,0.999166,0.040384,-0.006108,-0.999166,-0.000513,0.003468,-0.029979,-0.000485,0.008161,0.003154,0.000000,0.000000,0.000000,-1.000000,-1.000000
482148226.707634,0.036697,-0.003632,-1.025467,0.040352,0.006188,0.001740,0.999184,0.001988,-0.040340,-0.001740,0.999979,0.006188,0.040352,-0.006113,0.999167,0.040340,-0.006188,-0.999167,-0.002636,-0.004386,-0.030008,-0.000063,0.002113,-0.003793,0.000000,0.000000,0.000000,-1.000000,-1.000000
482148226.717505,0.044830,-0.010544,-1.033600,0.040299,0.006213,0.001723,0.999186,0.001971,-0.040288,-0.001723,0.999979,0.006213,0.040299,-0.006139,0.999169,0.040288,-0.006213,-0.999169,-0.001561,0.001590,-0.028083,0.005835,0.002096,-0.001137,0.000000,0.000000,0.000000,-1.000000,-1.000000
482148226.727529,0.037766,-0.003632,-1.027328,0.040362,0.006328,0.001737,0.999184,0.001991,-0.040350,-0.001737,0.999978,0.006328,0.040362,-0.006253,0.999166,0.040350,-0.006328,-0.999166,0.004648,-0.003254,-0.037364,0.003365,0.003324,-0.000107,0.000000,0.000000,0.000000,-1.000000,-1.000000
482148226.736578,0.037766,-0.003632,-1.027328,0.040339,0.006293,0.001668,0.999185,0.001920,-0.040328,-0.001668,0.999979,0.006293,0.040339,-0.006220,0.999167,0.040328,-0.006293,-0.999167,-0.003630,0.002661,-0.026300,-0.001146,0.008046,-0.006279,0.000000,0.000000,0.000000,-1.000000,-1.000000
482148226.747562,0.036865,-0.005646,-1.029297,0.040339,0.006293,0.001668,0.999185,0.001920,-0.040328,-0.001668,0.999979,0.006293,0.040339,-0.006220,0.999167,0.040328,-0.006293,-0.999167,-0.003630,0.002661,-0.026300,-0.001146,0.008046,-0.006279,0.000000,0.000000,0.000000,-1.000000,-1.000000
482148226.757449,0.042786,-0.005585,-1.029907,0.040476,0.006440,0.001665,0.999179,0.001924,-0.040464,-0.001665,0.999978,0.006440,0.040476,-0.006367,0.999160,0.040464,-0.006440,-0.999160,0.004366,-0.004104,-0.034440,0.009608,0.008034,-0.003370,0.000000,0.000000,0.000000,-1.000000,-1.000000
482148226.767547,0.036926,-0.004669,-1.030273,0.040412,0.006403,0.001682,0.999182,0.001939,-0.040401,-0.001682,0.999978,0.006403,0.040412,-0.006330,0.999163,0.040401,-0.006403,-0.999163,-0.003535,0.000757,-0.030134,0.001943,0.003315,0.003344,0.000000,0.000000,0.000000,-1.000000,-1.000000
482148226.777537,0.035187,-0.007721,-1.036194,0.040424,0.006378,0.001707,0.999181,0.001963,-0.040412,-0.001707,0.999978,0.006378,0.040424,-0.006304,0.999163,0.040412,-0.006378,-0.999163,0.002374,0.000793,-0.030744,-0.002623,-0.001476,-0.001529,0.000000,0.000000,0.000000,-1.000000,-1.000000
482148226.787599,0.040741,-0.008591,-1.029999,0.040424,0.006378,0.001707,0.999181,0.001963,-0.040412,-0.001707,0.999978,0.006378,0.040424,-0.006304,0.999163,0.040412,-0.006378,-0.999163,0.002374,0.000793,-0.030744,-0.002623,-0.001476,-0.001529,0.000000,0.000000,0.000000,-1.000000,-1.000000
482148226.797530,0.038864,-0.003647,-1.029205,0.040363,0.006341,0.001773,0.999183,0.002027,-0.040352,-0.001773,0.999978,0.006341,0.040364,-0.006264,0.999165,0.040352,-0.006341,-0.999165,-0.003425,0.001672,-0.031108,0.005622,-0.000308,0.002408,0.000000,0.000000,0.000000,-1.000000,-1.000000
482148226.807496,0.042862,-0.004593,-1.030899,0.040172,0.006314,0.001761,0.999191,0.002013,-0.040161,-0.001761,0.999979,0.006313,0.040173,-0.006238,0.999173,0.040161,-0.006313,-0.999173,-0.004974,-0.001407,-0.037021,-0.007457,-0.005088,-0.001732,0.000000,0.000000,0.000000,-1.000000,-1.000000
482148226.818010,0.039902,-0.005630,-1.031052,0.040139,0.006356,0.001737,0.999193,0.001991,-0.040127,-0.001737,0.999978,0.006356,0.040139,-0.006282,0.999174,0.040127,-0.006356,-0.999174,0.000614,-0.002234,-0.030824,0.002080,-0.001530,0.001066,0.000000,0.000000,0.000000,-1.000000,-1.000000
482148226.827532,0.039215,-0.003723,-1.035995,0.040125,0.006262,0.001778,0.999193,0.002027,-0.040113,-0.001778,0.999979,0.006262,0.040125,-0.006186,0.999175,0.040113,-0.006262,-0.999175,-0.001249,0.002615,-0.030030,-0.003101,0.002112,0.006622,0.000000,0.000000,0.000000,-1.000000,-1.000000
482148226.837564,0.038834,-0.006638,-1.030121,0.040164,0.006219,0.001770,0.999192,0.002018,-0.040153,-0.001770,0.999979,0.006219,0.040165,-0.006143,0.999174,0.040153,-0.006219,-0.999174,0.002709,0.001626,-0.031725,-0.002572,-0.000353,-0.002717,0.000000,0.000000,0.000000,-1.000000,-1.000000
482148226.847344,0.038834,-0.006638,-1.030121,0.040206,0.006234,0.001776,0.999190,0.002025,-0.040195,-0.001776,0.999979,0.006234,0.040206,-0.006158,0.999172,0.040195,-0.006234,-0.999172,-0.000293,0.000604,-0.031879,-0.001504,0.005624,-0.000391,0.000000,0.000000,0.000000,-1.000000,-1.000000
482148226.857570,0.038788,-0.006622,-1.029160,0.040206,0.006234,0.001776,0.999190,0.002025,-0.040195,-0.001776,0.999979,0.006234,0.040206,-0.006158,0.999172,0.040195,-0.006234,-0.999172,-0.000293,0.000604,-0.031879,-0.001504,0.005624,-0.000391,0.000000,0.000000,0.000000,-1.000000,-1.000000
482148226.867496,0.039398,-0.004745,-1.039841,0.040150,0.006171,0.001833,0.999192,0.002079,-0.040139,-0.001833,0.999979,0.006171,0.040151,-0.006093,0.999175,0.040139,-0.006171,-0.999175,-0.000923,0.002448,-0.036820,-0.003125,-0.000287,0.006653,0.000000,0.000000,0.000000,-1.000000,-1.000000
482148226.877553,0.037903,-0.002655,-1.029266,0.040126,0.006166,0.001877,0.999193,0.002122,-0.040114,-0.001877,0.999979,0.006166,0.040127,-0.006086,0.999176,0.040114,-0.006166,-0.999176,-0.001327,-0.000456,-0.029983,0.005800,0.004353,-0.001170,0.000000,0.000000,0.000000,-1.000000,-1.000000
482148226.887536,0.038986,-0.006668,-1.033035,0.040137,0.006171,0.001847,0.999192,0.002094,-0.040126,-0.001847,0.999979,0.006171,0.040138,-0.006092,0.999176,0.040126,-0.006171,-0.999176,-0.000727,0.001426,-0.040665,0.001026,0.006739,-0.002624,0.000000,0.000000,0.000000,-1.000000,-1.000000
482148226.897478,0.035889,-0.004669,-1.029373,0.040137,0.006171,0.001847,0.999192,0.002094,-0.040126,-0.001847,0.999979,0.006171,0.040138,-0.006092,0.999176,0.040126,-0.006171,-0.999176,-0.000727,0.001426,-0.040665,0.001026,0.006739,-0.002624,0.000000,0.000000,0.000000,-1.000000,-1.000000
482148226.907531,0.042816,-0.006577,-1.030869,0.040104,0.006079,0.001870,0.999194,0.002112,-0.040093,-0.001870,0.999980,0.006079,0.040105,-0.005999,0.999177,0.040093,-0.006079,-0.999177,-0.002190,0.003424,-0.030089,0.004566,0.005525,-0.001249,0.000000,0.000000,0.000000,-1.000000,-1.000000
482148226.917557,0.039886,-0.003647,-1.030106,0.040075,0.006100,0.001879,0.999195,0.002121,-0.040063,-0.001879,0.999980,0.006100,0.040075,-0.006020,0.999179,0.040063,-0.006100,-0.999179,-0.001077,-0.000568,-0.033857,-0.002947,0.005586,0.003059,0.000000,0.000000,0.000000,-1.000000,-1.000000
482148226.927517,0.042786,-0.007553,-1.030869,0.040075,0.006100,0.001879,0.999195,0.002121,-0.040063,-0.001879,0.999980,0.006100,0.040075,-0.006020,0.999179,0.040063,-0.006100,-0.999179,-0.001077,-0.000568,-0.033857,-0.002947,0.005586,0.003059,0.000000,0.000000,0.000000,-1.000000,-1.000000
482148226.937642,0.036758,-0.005630,-1.027359,0.040039,0.006104,0.001896,0.999196,0.002139,-0.040028,-0.001896,0.999980,0.006104,0.040040,-0.006023,0.999180,0.040028,-0.006104,-0.999180,0.002788,-0.000472,-0.031689,0.002214,0.000720,-0.002483,0.000000,0.000000,0.000000,-1.000000,-1.000000
482148226.947655,0.043640,-0.008545,-1.028854,0.040027,0.006056,0.001883,0.999197,0.002124,-0.040016,-0.001883,0.999980,0.006055,0.040028,-0.005975,0.999181,0.040016,-0.006055,-0.999181,-0.000129,0.002409,-0.030925,0.003074,0.001954,0.003420,0.000000,0.000000,0.000000,-1.000000,-1.000000
482148226.957480,0.043640,-0.008545,-1.028854,0.040029,0.006116,0.001885,0.999197,0.002128,-0.040018,-0.001885,0.999979,0.006116,0.040030,-0.006036,0.999180,0.040018,-0.006116,-0.999180,0.002768,-0.001437,-0.031688,-0.001616,-0.004007,0.000906,0.000000,0.000000,0.000000,-1.000000,-1.000000
482148226.967678,0.039810,-0.002625,-1.028168,0.040029,0.006116,0.001885,0.999197,0.002128,-0.040018,-0.001885,0.999979,0.006116,0.040030,-0.006036,0.999180,0.040018,-0.006116,-0.999180,0.002768,-0.001437,-0.031688,-0.001616,-0.004007,0.000906,0.000000,0.000000,0.000000,-1.000000,-1.000000
482148226.977508,0.036880,-0.004654,-1.029312,0.039969,0.006115,0.001883,0.999199,0.002126,-0.039957,-0.001883,0.999980,0.006115,0.039969,-0.006035,0.999183,0.039957,-0.006115,-0.999183,-0.003199,0.000485,-0.028176,0.000995,0.005478,-0.002609,0.000000,0.000000,0.000000,-1.000000,-1.000000
482148226.987535,0.041992,-0.003647,-1.032913,0.040098,0.006125,0.001926,0.999194,0.002170,-0.040086,-0.001926,0.999979,0.006125,0.040099,-0.006043,0.999177,0.040086,-0.006125,-0.999177,-0.000276,0.003500,-0.028990,0.004142,0.004348,0.005793,0.000000,0.000000,0.000000,-1.000000,-1.000000
482148226.997528,0.043106,-0.004654,-1.035751,0.040031,0.006113,0.001935,0.999197,0.002178,-0.040020,-0.001935,0.999979,0.006113,0.040032,-0.006031,0.999180,0.040020,-0.006113,-0.999180,-0.003139,0.001459,-0.030132,0.003194,0.005483,0.001030,0.000000,0.000000,0.000000,-1.000000,-1.000000
482148227.007566,0.040848,-0.008606,-1.031937,0.040031,0.006113,0.001935,0.999197,0.002178,-0.040020,-0.001935,0.999979,0.006113,0.040032,-0.006031,0.999180,0.040020,-0.006113,-0.999180,-0.003139,0.001459,-0.030132,0.003194,0.005483,0.001030,0.000000,0.000000,0.000000,-1.000000,-1.000000
482148227.016878,0.037949,-0.006653,-1.032120,0.040052,0.006134,0.002066,0.999195,0.002310,-0.040040,-0.002066,0.999979,0.006134,0.040054,-0.006047,0.999179,0.040040,-0.006134,-0.999179,0.001952,0.002488,-0.033734,0.006538,-0.001649,0.005998,0.000000,0.000000,0.000000,-1.000000,-1.000000
482148227.027553,0.043030,-0.007614,-1.035721,0.040103,0.006150,0.002059,0.999193,0.002304,-0.040092,-0.002059,0.999979,0.006150,0.040105,-0.006062,0.999177,0.040092,-0.006150,-0.999177,0.003014,0.001496,-0.036574,0.000890,0.005483,-0.001439,0.000000,0.000000,0.000000,-1.000000,-1.000000
482148227.037476,0.039963,-0.004654,-1.032028,0.040103,0.006150,0.002059,0.999193,0.002304,-0.040092,-0.002059,0.999979,0.006150,0.040105,-0.006062,0.999177,0.040092,-0.006150,-0.999177,0.003014,0.001496,-0.036574,0.000890,0.005483,-0.001439,0.000000,0.000000,0.000000,-1.000000,-1.000000
482148227.047528,0.042679,-0.001572,-1.026093,0.040024,0.006208,0.002044,0.999197,0.002291,-0.040013,-0.002044,0.999979,0.006208,0.040026,-0.006121,0.999180,0.040013,-0.006208,-0.999180,-0.002064,-0.000445,-0.032940,-0.000102,-0.002919,-0.004904,0.000000,0.000000,0.000000,-1.000000,-1.000000
482148227.057724,0.042679,-0.001572,-1.026093,0.040080,0.006278,0.002069,0.999194,0.002319,-0.040068,-0.002069,0.999978,0.006278,0.040082,-0.006190,0.999177,0.040068,-0.006278,-0.999177,0.002961,-0.001336,-0.036544,0.004131,0.001937,0.005825,0.000000,0.000000,0.000000,-1.000000,-1.000000
482148227.067636,0.042816,-0.002594,-1.028976,0.040040,0.006280,0.002114,0.999196,0.002364,-0.040029,-0.002114,0.999978,0.006280,0.040043,-0.006190,0.999179,0.040029,-0.006280,-0.999179,-0.000066,0.001626,-0.032849,-0.000443,0.003102,0.000873,0.000000,0.000000,0.000000,-1.000000,-1.000000
482148227.077634,0.039902,-0.005630,-1.031052,0.040040,0.006280,0.002114,0.999196,0.002364,-0.040029,-0.002114,0.999978,0.006280,0.040043,-0.006190,0.999179,0.040029,-0.006280,-0.999179,-0.000066,0.001626,-0.032849,-0.000443,0.003102,0.000873,0.000000,0.000000,0.000000,-1.000000,-1.000000
482148227.087532,0.039017,-0.003677,-1.032104,0.040130,0.006154,0.002110,0.999192,0.002356,-0.040119,-0.002110,0.999979,0.006154,0.040132,-0.006065,0.999176,0.040119,-0.006154,-0.999176,0.002560,0.004583,-0.026917,-0.000267,0.005466,-0.002674,0.000000,0.000000,0.000000,-1.000000,-1.000000
482148227.097535,0.043655,-0.005554,-1.027908,0.040212,0.006063,0.002121,0.999189,0.002363,-0.040201,-0.002121,0.999979,0.006063,0.040214,-0.005973,0.999173,0.040201,-0.006063,-0.999173,-0.000299,0.000433,-0.031878,-0.001629,0.001910,-0.000348,0.000000,0.000000,0.000000,-1.000000,-1.000000
482148227.107516,0.041687,-0.001587,-1.026154,0.040203,0.005993,0.002102,0.999189,0.002342,-0.040192,-0.002102,0.999980,0.005993,0.040205,-0.005904,0.999174,0.040192,-0.005993,-0.999174,-0.001175,0.002316,-0.032930,0.000838,0.006651,-0.001457,0.000000,0.000000,0.000000,-1.000000,-1.000000
482148227.117496,0.043900,-0.010574,-1.034637,0.040203,0.005993,0.002102,0.999189,0.002342,-0.040192,-0.002102,0.999980,0.005993,0.040205,-0.005904,0.999174,0.040192,-0.005993,-0.999174,-0.001175,0.002316,-0.032930,0.000838,0.006651,-0.001457,0.000000,0.000000,0.000000,-1.000000,-1.000000
482148227.127537,0.042862,-0.006592,-1.031830,0.040347,0.006082,0.002065,0.999184,0.002309,-0.040336,-0.002065,0.999979,0.006082,0.040349,-0.005994,0.999168,0.040336,-0.006082,-0.999168,0.003320,0.000528,-0.028741,0.009423,0.008993,-0.003392,0.000000,0.000000,0.000000,-1.000000,-1.000000
482148227.137544,0.044693,-0.005554,-1.028824,0.040365,0.006017,0.002053,0.999183,0.002294,-0.040353,-0.002053,0.999980,0.006017,0.040366,-0.005929,0.999167,0.040353,-0.006017,-0.999167,0.001334,0.004430,-0.026986,0.001887,0.000712,0.001027,0.000000,0.000000,0.000000,-1.000000,-1.000000
482148227.147518,0.037888,-0.004654,-1.030212,0.040365,0.006017,0.002053,0.999183,0.002294,-0.040353,-0.002053,0.999980,0.006017,0.040366,-0.005929,0.999167,0.040353,-0.006017,-0.999167,0.001334,0.004430,-0.026986,0.001887,0.000712,0.001027,0.000000,0.000000,0.000000,-1.000000,-1.000000
482148227.157580,0.039917,-0.002655,-1.030106,0.040480,0.006142,0.002026,0.999178,0.002273,-0.040468,-0.002026,0.999979,0.006142,0.040482,-0.006055,0.999162,0.040468,-0.006142,-0.999162,0.002394,-0.000450,-0.032668,0.005668,0.001886,-0.001143,0.000000,0.000000,0.000000,-1.000000,-1.000000
482148227.167630,0.039917,-0.002655,-1.030106,0.040573,0.006089,0.002006,0.999175,0.002252,-0.040561,-0.002006,0.999979,0.006089,0.040574,-0.006002,0.999159,0.040561,-0.006089,-0.999159,0.004132,0.000534,-0.029665,-0.007488,0.001936,-0.004176,0.000000,0.000000,0.000000,-1.000000,-1.000000
482148227.177553,0.039673,-0.007568,-1.028122,0.040567,0.006095,0.001991,0.999175,0.002237,-0.040555,-0.001991,0.999979,0.006095,0.040568,-0.006009,0.999159,0.040555,-0.006095,-0.999159,-0.002668,0.001441,-0.031054,-0.001928,0.005545,0.004289,0.000000,0.000000,0.000000,-1.000000,-1.000000
482148227.187577,0.042908,-0.006607,-1.032806,0.040567,0.006095,0.001991,0.999175,0.002237,-0.040555,-0.001991,0.999979,0.006095,0.040568,-0.006009,0.999159,0.040555,-0.006095,-0.999159,-0.002668,0.001441,-0.031054,-0.001928,0.005545,0.004289,0.000000,0.000000,0.000000,-1.000000,-1.000000
482148227.197566,0.039612,-0.010544,-1.028076,0.040588,0.006024,0.001972,0.999174,0.002215,-0.040576,-0.001972,0.999980,0.006024,0.040588,-0.005939,0.999158,0.040576,-0.006024,-0.999158,-0.000659,0.003369,-0.030947,0.004427,0.007844,-0.001286,0.000000,0.000000,0.000000,-1.000000,-1.000000
482148227.207716,0.043915,-0.003616,-1.031815,0.040706,0.006096,0.001994,0.999169,0.002240,-0.040694,-0.001994,0.999979,0.006096,0.040706,-0.006009,0.999153,0.040694,-0.006096,-0.999153,0.002214,-0.000511,-0.033653,0.004435,0.010225,-0.001318,0.000000,0.000000,0.000000,-1.000000,-1.000000
482148227.217508,0.043884,-0.004608,-1.031799,0.040706,0.006096,0.001994,0.999169,0.002240,-0.040694,-0.001994,0.999979,0.006096,0.040706,-0.006009,0.999153,0.040694,-0.006096,-0.999153,0.002214,-0.000511,-0.033653,0.004435,0.010225,-0.001318,0.000000,0.000000,0.000000,-1.000000,-1.000000
482148227.227608,0.042938,-0.011566,-1.035675,0.040652,0.006216,0.001987,0.999171,0.002238,-0.040640,-0.001987,0.999979,0.006216,0.040653,-0.006130,0.999155,0.040640,-0.006216,-0.999155,-0.001028,-0.004328,-0.028922,0.001846,-0.006455,0.002295,0.000000,0.000000,0.000000,-1.000000,-1.000000
482148227.237530,0.046707,-0.004547,-1.029694,0.040750,0.006120,0.001997,0.999167,0.002245,-0.040738,-0.001997,0.999979,0.006120,0.040751,-0.006033,0.999151,0.040738,-0.006120,-0.999151,0.003177,0.002503,-0.032663,-0.000387,0.004275,-0.001489,0.000000,0.000000,0.000000,-1.000000,-1.000000
482148227.247530,0.035843,-0.006653,-1.029343,0.040834,0.006112,0.002011,0.999164,0.002258,-0.040822,-0.002011,0.999979,0.006112,0.040835,-0.006024,0.999148,0.040822,-0.006112,-0.999148,0.003062,0.001503,-0.032652,0.006584,0.003103,0.003588,0.000000,0.000000,0.000000,-1.000000,-1.000000
482148227.257477,0.041794,-0.005600,-1.029968,0.040834,0.006112,0.002011,0.999164,0.002258,-0.040822,-0.002011,0.999979,0.006112,0.040835,-0.006024,0.999148,0.040822,-0.006112,-0.999148,0.003062,0.001503,-0.032652,0.006584,0.003103,0.003588,0.000000,0.000000,0.000000,-1.000000,-1.000000
482148227.267465,0.042786,-0.003586,-1.028976,0.041040,0.006234,0.002021,0.999155,0.002275,-0.041028,-0.002021,0.999979,0.006234,0.041041,-0.006146,0.999139,0.041028,-0.006234,-0.999139,0.005679,0.001687,-0.030555,0.003179,0.000725,-0.000081,0.000000,0.000000,0.000000,-1.000000,-1.000000
482148227.277813,0.042786,-0.003586,-1.028976,0.040919,0.006280,0.001971,0.999160,0.002227,-0.040907,-0.001971,0.999978,0.006280,0.040920,-0.006194,0.999143,0.040907,-0.006280,-0.999143,-0.005064,-0.000373,-0.030199,0.009488,-0.000569,-0.004436,0.000000,0.000000,0.000000,-1.000000,-1.000000
482148227.287449,0.042709,-0.008560,-1.029877,0.041016,0.006242,0.001966,0.999157,0.002220,-0.041004,-0.001965,0.999979,0.006242,0.041017,-0.006156,0.999139,0.041004,-0.006242,-0.999139,0.000790,0.000642,-0.030829,0.000825,0.004271,-0.001426,0.000000,0.000000,0.000000,-1.000000,-1.000000
482148227.297539,0.041000,-0.006638,-1.033890,0.041016,0.006242,0.001966,0.999157,0.002220,-0.041004,-0.001965,0.999979,0.006242,0.041017,-0.006156,0.999139,0.041004,-0.006242,-0.999139,0.000790,0.000642,-0.030829,0.000825,0.004271,-0.001426,0.000000,0.000000,0.000000,-1.000000,-1.000000
482148227.307525,0.044800,-0.005569,-1.030762,0.041045,0.006226,0.001964,0.999155,0.002217,-0.041033,-0.001964,0.999979,0.006226,0.041046,-0.006141,0.999138,0.041033,-0.006226,-0.999138,0.001753,0.002641,-0.029838,0.004436,-0.001710,-0.001158,0.000000,0.000000,0.000000,-1.000000,-1.000000
482148227.317526,0.042847,-0.005585,-1.030884,0.041068,0.006348,0.001960,0.999154,0.002219,-0.041056,-0.001960,0.999978,0.006348,0.041069,-0.006262,0.999137,0.041056,-0.006348,-0.999137,-0.000055,-0.000289,-0.034753,-0.003002,0.005509,0.001883,0.000000,0.000000,0.000000,-1.000000,-1.000000
482148227.327800,0.039780,-0.003616,-1.028168,0.041068,0.006348,0.001960,0.999154,0.002219,-0.041056,-0.001960,0.999978,0.006348,0.041069,-0.006262,0.999137,0.041056,-0.006348,-0.999137,-0.000055,-0.000289,-0.034753,-0.003002,0.005509,0.001883,0.000000,0.000000,0.000000,-1.000000,-1.000000
482148227.337524,0.037735,-0.004623,-1.027313,0.041181,0.006333,0.001989,0.999150,0.002248,-0.041169,-0.001989,0.999978,0.006333,0.041182,-0.006246,0.999132,0.041169,-0.006333,-0.999132,0.003631,0.000764,-0.031630,-0.003075,0.007919,0.003022,0.000000,0.000000,0.000000,-1.000000,-1.000000
482148227.346915,0.041580,-0.009521,-1.027985,0.041349,0.006336,0.002009,0.999143,0.002270,-0.041336,-0.002009,0.999978,0.006336,0.041350,-0.006248,0.999125,0.041336,-0.006336,-0.999125,0.001511,0.000752,-0.031759,0.003226,0.009046,-0.001364,0.000000,0.000000,0.000000,-1.000000,-1.000000
482148227.357550,0.040985,-0.004654,-1.032959,0.041356,0.006269,0.002007,0.999142,0.002264,-0.041344,-0.002007,0.999978,0.006269,0.041357,-0.006181,0.999125,0.041344,-0.006269,-0.999125,-0.001564,0.002653,-0.029042,-0.000545,0.005488,0.000837,0.000000,0.000000,0.000000,-1.000000,-1.000000
482148227.367657,0.042740,-0.005569,-1.028946,0.041356,0.006269,0.002007,0.999142,0.002264,-0.041344,-0.002007,0.999978,0.006269,0.041357,-0.006181,0.999125,0.041344,-0.006269,-0.999125,-0.001564,0.002653,-0.029042,-0.000545,0.005488,0.000837,0.000000,0.000000,0.000000,-1.000000,-1.000000
482148227.377149,0.042740,-0.005569,-1.028946,0.041283,0.006392,0.001966,0.999146,0.002228,-0.041271,-0.001966,0.999978,0.006392,0.041284,-0.006305,0.999128,0.041271,-0.006392,-0.999128,0.000310,-0.003130,-0.028857,0.003018,0.004259,0.002213,0.000000,0.000000,0.000000,-1.000000,-1.000000
482148227.387565,0.041107,-0.008652,-1.036789,0.041308,0.006389,0.002006,0.999144,0.002269,-0.041295,-0.002006,0.999978,0.006389,0.041309,-0.006301,0.999127,0.041295,-0.006389,-0.999127,-0.000310,0.001735,-0.033832,0.006496,0.006644,0.004711,0.000000,0.000000,0.000000,-1.000000,-1.000000
482148227.397150,0.040665,-0.005585,-1.027130,0.041422,0.006462,0.002072,0.999140,0.002337,-0.041409,-0.002072,0.999977,0.006462,0.041423,-0.006371,0.999121,0.041409,-0.006462,-0.999121,0.001331,0.000892,-0.029825,0.008034,0.005393,-0.001066,0.000000,0.000000,0.000000,-1.000000,-1.000000
482148227.407497,0.045837,-0.004578,-1.031677,0.041422,0.006462,0.002072,0.999140,0.002337,-0.041409,-0.002072,0.999977,0.006462,0.041423,-0.006371,0.999121,0.041409,-0.006462,-0.999121,0.001331,0.000892,-0.029825,0.008034,0.005393,-0.001066,0.000000,0.000000,0.000000,-1.000000,-1.000000
482148227.416853,0.041870,-0.004608,-1.030960,0.041437,0.006549,0.002059,0.999139,0.002328,-0.041424,-0.002059,0.999976,0.006549,0.041439,-0.006458,0.999120,0.041424,-0.006549,-0.999120,-0.000317,-0.002103,-0.037669,0.002071,0.008979,-0.002599,0.000000,0.000000,0.000000,-1.000000,-1.000000
482148227.427483,0.039795,-0.005615,-1.029114,0.041500,0.006480,0.002016,0.999136,0.002283,-0.041487,-0.002016,0.999977,0.006480,0.041501,-0.006391,0.999118,0.041487,-0.006480,-0.999118,0.004351,0.001903,-0.032559,0.002191,-0.001779,-0.004799,0.000000,0.000000,0.000000,-1.000000,-1.000000
482148227.437826,0.038971,-0.003662,-1.031143,0.041475,0.006432,0.001992,0.999138,0.002257,-0.041462,-0.001992,0.999977,0.006432,0.041476,-0.006343,0.999119,0.041462,-0.006432,-0.999119,0.000408,0.001823,-0.031841,-0.000304,0.003012,-0.003817,0.000000,0.000000,0.000000,-1.000000,-1.000000
482148227.447555,0.041046,-0.002670,-1.032974,0.041475,0.006432,0.001992,0.999138,0.002257,-0.041462,-0.001992,0.999977,0.006432,0.041476,-0.006343,0.999119,0.041462,-0.006432,-0.999119,0.000408,0.001823,-0.031841,-0.000304,0.003012,-0.003817,0.000000,0.000000,0.000000,-1.000000,-1.000000
482148227.457545,0.039749,-0.004608,-1.028152,0.041510,0.006407,0.001955,0.999136,0.002219,-0.041498,-0.001955,0.999978,0.006407,0.041511,-0.006320,0.999118,0.041498,-0.006407,-0.999118,-0.001703,0.000791,-0.029996,0.001166,0.004143,-0.008455,0.000000,0.000000,0.000000,-1.000000,-1.000000
482148227.466633,0.038956,-0.007645,-1.033035,0.041488,0.006366,0.001947,0.999137,0.002210,-0.041475,-0.001947,0.999978,0.006366,0.041489,-0.006280,0.999119,0.041475,-0.006366,-0.999119,-0.002505,0.002704,-0.032024,0.004305,0.006568,-0.000101,0.000000,0.000000,0.000000,-1.000000,-1.000000
482148227.477590,0.037231,-0.004730,-1.036102,0.041488,0.006366,0.001947,0.999137,0.002210,-0.041475,-0.001947,0.999978,0.006366,0.041489,-0.006280,0.999119,0.041475,-0.006366,-0.999119,-0.002505,0.002704,-0.032024,0.004305,0.006568,-0.000101,0.000000,0.000000,0.000000,-1.000000,-1.000000
482148227.487199,0.037231,-0.004730,-1.036102,0.041456,0.006334,0.001981,0.999138,0.002242,-0.041443,-0.001981,0.999978,0.006334,0.041456,-0.006247,0.999121,0.041443,-0.006334,-0.999121,-0.001694,0.001726,-0.029032,0.001792,0.005371,0.000960,0.000000,0.000000,0.000000,-1.000000,-1.000000
482148227.496939,0.039871,-0.006622,-1.031036,0.041389,0.006337,0.001974,0.999141,0.002234,-0.041377,-0.001974,0.999978,0.006336,0.041390,-0.006249,0.999124,0.041377,-0.006336,-0.999124,-0.002421,-0.001308,-0.033912,0.000591,0.001776,0.000945,0.000000,0.000000,0.000000,-1.000000,-1.000000
482148227.507572,0.040863,-0.001633,-1.029114,0.041381,0.006369,0.001986,0.999141,0.002247,-0.041368,-0.001986,0.999978,0.006369,0.041381,-0.006281,0.999124,0.041368,-0.006369,-0.999124,-0.004137,0.001638,-0.036979,-0.003178,0.007750,0.003019,0.000000,0.000000,0.000000,-1.000000,-1.000000
482148227.517529,0.043808,-0.003601,-1.029877,0.041381,0.006369,0.001986,0.999141,0.002247,-0.041368,-0.001986,0.999978,0.006369,0.041381,-0.006281,0.999124,0.041368,-0.006369,-0.999124,-0.004137,0.001638,-0.036979,-0.003178,0.007750,0.003019,0.000000,0.000000,0.000000,-1.000000,-1.000000
482148227.527512,0.044693,-0.005554,-1.028824,0.041391,0.006359,0.001994,0.999141,0.002255,-0.041378,-0.001993,0.999978,0.006359,0.041392,-0.006271,0.999123,0.041378,-0.006359,-0.999123,-0.001507,-0.000264,-0.031913,0.000580,0.007700,0.000865,0.000000,0.000000,0.000000,-1.000000,-1.000000
482148227.537524,0.039734,-0.005600,-1.028137,0.041473,0.006245,0.002021,0.999138,0.002278,-0.041461,-0.002021,0.999978,0.006245,0.041474,-0.006155,0.999121,0.041461,-0.006245,-0.999121,0.002347,0.002644,-0.030756,0.000475,0.001739,0.002115,0.000000,0.000000,0.000000,-1.000000,-1.000000
482148227.547656,0.039017,-0.005676,-1.033051,0.041473,0.006245,0.002021,0.999138,0.002278,-0.041461,-0.002021,0.999978,0.006245,0.041474,-0.006155,0.999121,0.041461,-0.006245,-0.999121,0.002347,0.002644,-0.030756,0.000475,0.001739,0.002115,0.000000,0.000000,0.000000,-1.000000,-1.000000
482148227.557545,0.041611,-0.006561,-1.027054,0.041570,0.006242,0.002029,0.999134,0.002286,-0.041557,-0.002029,0.999978,0.006242,0.041570,-0.006152,0.999117,0.041557,-0.006242,-0.999117,0.003136,0.000688,-0.029707,0.001810,0.006497,-0.000229,0.000000,0.000000,0.000000,-1.000000,-1.000000
482148227.567535,0.040756,-0.007584,-1.030014,0.041600,0.006262,0.002040,0.999132,0.002299,-0.041587,-0.002040,0.999978,0.006262,0.041601,-0.006172,0.999115,0.041587,-0.006262,-0.999115,-0.001853,0.000662,-0.029022,0.000600,-0.000676,-0.000197,0.000000,0.000000,0.000000,-1.000000,-1.000000
482148227.577566,0.039032,-0.004684,-1.033066,0.041520,0.006250,0.002038,0.999136,0.002296,-0.041507,-0.002038,0.999978,0.006250,0.041520,-0.006160,0.999119,0.041507,-0.006250,-0.999119,-0.002490,0.000574,-0.033932,0.001670,0.001707,0.002177,0.000000,0.000000,0.000000,-1.000000,-1.000000
482148227.587077,0.039032,-0.004684,-1.033066,0.041520,0.006250,0.002038,0.999136,0.002296,-0.041507,-0.002038,0.999978,0.006250,0.041520,-0.006160,0.999119,0.041507,-0.006250,-0.999119,-0.002490,0.000574,-0.033932,0.001670,0.001707,0.002177,0.000000,0.000000,0.000000,-1.000000,-1.000000
482148227.597601,0.040970,-0.003647,-1.031998,0.041366,0.006299,0.002025,0.999142,0.002284,-0.041353,-0.002025,0.999978,0.006299,0.041367,-0.006210,0.999125,0.041353,-0.006299,-0.999125,-0.000597,-0.001284,-0.030889,-0.000606,0.001681,-0.000291,0.000000,0.000000,0.000000,-1.000000,-1.000000
482148227.607080,0.038727,-0.004623,-1.027252,0.041313,0.006288,0.002034,0.999144,0.002292,-0.041300,-0.002034,0.999978,0.006288,0.041314,-0.006198,0.999127,0.041300,-0.006288,-0.999127,-0.002268,0.001603,-0.033939,0.004216,0.001642,-0.000040,0.000000,0.000000,0.000000,-1.000000,-1.000000
482148227.617535,0.041885,-0.007599,-1.032867,0.041318,0.006180,0.002083,0.999144,0.002336,-0.041305,-0.002083,0.999979,0.006180,0.041319,-0.006089,0.999127,0.041305,-0.006180,-0.999127,-0.000335,0.002534,-0.032870,-0.004320,0.001680,0.000691,0.000000,0.000000,0.000000,-1.000000,-1.000000
482148227.627570,0.039612,-0.010544,-1.028076,0.041318,0.006180,0.002083,0.999144,0.002336,-0.041305,-0.002083,0.999979,0.006180,0.041319,-0.006089,0.999127,0.041305,-0.006180,-0.999127,-0.000335,0.002534,-0.032870,-0.004320,0.001680,0.000691,0.000000,0.000000,0.000000,-1.000000,-1.000000
482148227.637539,0.037857,-0.001648,-1.028305,0.041241,0.006193,0.002076,0.999147,0.002330,-0.041229,-0.002076,0.999979,0.006193,0.041242,-0.006102,0.999131,0.041229,-0.006193,-0.999131,-0.002502,0.001570,-0.028122,0.007817,-0.001982,0.000195,0.000000,0.000000,0.000000,-1.000000,-1.000000
482148227.647568,0.041916,-0.004623,-1.031921,0.041253,0.006355,0.002072,0.999147,0.002332,-0.041241,-0.002072,0.999978,0.006355,0.041255,-0.006264,0.999129,0.041241,-0.006355,-0.999129,-0.001629,-0.004189,-0.028947,-0.001822,0.007589,-0.000434,0.000000,0.000000,0.000000,-1.000000,-1.000000
482148227.657595,0.035919,-0.005676,-1.030319,0.041253,0.006355,0.002072,0.999147,0.002332,-0.041241,-0.002072,0.999978,0.006355,0.041255,-0.006264,0.999129,0.041241,-0.006355,-0.999129,-0.001629,-0.004189,-0.028947,-0.001822,0.007589,-0.000434,0.000000,0.000000,0.000000,-1.000000,-1.000000
482148227.667526,0.037872,-0.005646,-1.030197,0.041110,0.006312,0.002045,0.999152,0.002302,-0.041097,-0.002044,0.999978,0.006312,0.041111,-0.006222,0.999135,0.041097,-0.006312,-0.999135,-0.003240,0.004664,-0.029170,0.010504,-0.006850,-0.004300,0.000000,0.000000,0.000000,-1.000000,-1.000000
482148227.677551,0.041611,-0.006561,-1.027054,0.041073,0.006330,0.002041,0.999154,0.002299,-0.041060,-0.002041,0.999978,0.006330,0.041074,-0.006240,0.999137,0.041060,-0.006330,-0.999137,0.000856,0.001706,-0.032785,-0.001586,-0.000834,-0.005008,0.000000,0.000000,0.000000,-1.000000,-1.000000
482148227.687474,0.040787,-0.004608,-1.029083,0.040927,0.006349,0.002062,0.999160,0.002320,-0.040915,-0.002062,0.999978,0.006349,0.040929,-0.006260,0.999142,0.040915,-0.006349,-0.999142,-0.004996,0.000673,-0.031177,0.003981,-0.003205,0.003536,0.000000,0.000000,0.000000,-1.000000,-1.000000
482148227.697551,0.040787,-0.004608,-1.029083,0.040927,0.006349,0.002062,0.999160,0.002320,-0.040915,-0.002062,0.999978,0.006349,0.040929,-0.006260,0.999142,0.040915,-0.006349,-0.999142,-0.004996,0.000673,-0.031177,0.003981,-0.003205,0.003536,0.000000,0.000000,0.000000,-1.000000,-1.000000
482148227.707544,0.038971,-0.005661,-1.032074,0.040823,0.006363,0.002048,0.999164,0.002306,-0.040811,-0.002048,0.999978,0.006363,0.040824,-0.006274,0.999147,0.040811,-0.006363,-0.999147,0.000800,-0.000198,-0.027907,-0.000858,0.003953,0.003190,0.000000,0.000000,0.000000,-1.000000,-1.000000
482148227.717732,0.039658,-0.008575,-1.028107,0.040771,0.006401,0.002058,0.999166,0.002317,-0.040759,-0.002058,0.999977,0.006401,0.040773,-0.006312,0.999148,0.040759,-0.006401,-0.999148,0.000852,-0.000160,-0.027905,0.007802,-0.009243,0.000290,0.000000,0.000000,0.000000,-1.000000,-1.000000
482148227.727752,0.041824,-0.006592,-1.030930,0.040646,0.006370,0.002038,0.999171,0.002296,-0.040634,-0.002038,0.999978,0.006370,0.040648,-0.006282,0.999154,0.040634,-0.006370,-0.999154,-0.001663,0.000709,-0.032920,0.004096,-0.005658,0.001225,0.000000,0.000000,0.000000,-1.000000,-1.000000
482148227.737517,0.038834,-0.004639,-1.029190,0.040646,0.006370,0.002038,0.999171,0.002296,-0.040634,-0.002038,0.999978,0.006370,0.040648,-0.006282,0.999154,0.040634,-0.006370,-0.999154,-0.001663,0.000709,-0.032920,0.004096,-0.005658,0.001225,0.000000,0.000000,0.000000,-1.000000,-1.000000
482148227.747526,0.041946,-0.003632,-1.031937,0.040592,0.006424,0.002031,0.999174,0.002290,-0.040580,-0.002031,0.999977,0.006424,0.040594,-0.006336,0.999156,0.040580,-0.006424,-0.999156,-0.000922,-0.002151,-0.028951,0.002089,0.006214,-0.006087,0.000000,0.000000,0.000000,-1.000000,-1.000000
482148227.757544,0.042938,-0.003616,-1.031876,0.040585,0.006429,0.001984,0.999174,0.002243,-0.040573,-0.001984,0.999977,0.006429,0.040587,-0.006343,0.999156,0.040573,-0.006429,-0.999156,-0.001739,0.001790,-0.030034,0.003021,-0.002120,-0.001227,0.000000,0.000000,0.000000,-1.000000,-1.000000
482148227.767520,0.041763,-0.004593,-1.029022,0.040585,0.006429,0.001984,0.999174,0.002243,-0.040573,-0.001984,0.999977,0.006429,0.040587,-0.006343,0.999156,0.040573,-0.006429,-0.999156,-0.001739,0.001790,-0.030034,0.003021,-0.002120,-0.001227,0.000000,0.000000,0.000000,-1.000000,-1.000000
482148227.777525,0.043686,-0.008560,-1.029816,0.040637,0.006445,0.001965,0.999172,0.002225,-0.040625,-0.001965,0.999977,0.006445,0.040638,-0.006360,0.999154,0.040625,-0.006445,-0.999154,-0.001791,0.001807,-0.030036,-0.001679,0.006234,-0.003933,0.000000,0.000000,0.000000,-1.000000,-1.000000
482148227.787546,0.039948,-0.003647,-1.031082,0.040685,0.006373,0.002020,0.999170,0.002278,-0.040673,-0.002020,0.999978,0.006373,0.040686,-0.006286,0.999152,0.040673,-0.006373,-0.999152,0.002265,0.002757,-0.032723,0.000171,0.005120,0.005577,0.000000,0.000000,0.000000,-1.000000,-1.000000
482148227.796773,0.039948,-0.003647,-1.031082,0.040756,0.006469,0.002013,0.999167,0.002275,-0.040744,-0.002013,0.999977,0.006469,0.040757,-0.006382,0.999149,0.040744,-0.006469,-0.999149,0.001020,0.001876,-0.029874,0.017471,0.008565,-0.000619,0.000000,0.000000,0.000000,-1.000000,-1.000000
482148227.807600,0.041916,-0.006622,-1.032867,0.040756,0.006469,0.002013,0.999167,0.002275,-0.040744,-0.002013,0.999977,0.006469,0.040757,-0.006382,0.999149,0.040744,-0.006469,-0.999149,0.001020,0.001876,-0.029874,0.017471,0.008565,-0.000619,0.000000,0.000000,0.000000,-1.000000,-1.000000
482148227.817587,0.043655,-0.003571,-1.026978,0.040817,0.006387,0.002013,0.999165,0.002272,-0.040805,-0.002013,0.999978,0.006387,0.040818,-0.006299,0.999147,0.040805,-0.006387,-0.999147,-0.000857,0.002740,-0.031935,-0.006757,0.006288,-0.000673,0.000000,0.000000,0.000000,-1.000000,-1.000000
482148227.827531,0.039658,-0.004593,-1.026230,0.040842,0.006407,0.002048,0.999163,0.002308,-0.040829,-0.002048,0.999977,0.006407,0.040843,-0.006318,0.999146,0.040829,-0.006407,-0.999146,-0.000882,0.002760,-0.031937,0.001431,0.001520,0.004516,0.000000,0.000000,0.000000,-1.000000,-1.000000
482148227.837699,0.040771,-0.005600,-1.029068,0.040915,0.006428,0.002033,0.999161,0.002295,-0.040903,-0.002033,0.999977,0.006428,0.040917,-0.006340,0.999142,0.040903,-0.006428,-0.999142,0.002753,0.002858,-0.027835,0.005575,0.002621,-0.004682,0.000000,0.000000,0.000000,-1.000000,-1.000000
482148227.847702,0.038712,-0.005615,-1.027237,0.040915,0.006428,0.002033,0.999161,0.002295,-0.040903,-0.002033,0.999977,0.006428,0.040917,-0.006340,0.999142,0.040903,-0.006428,-0.999142,0.002753,0.002858,-0.027835,0.005575,0.002621,-0.004682,0.000000,0.000000,0.000000,-1.000000,-1.000000
482148227.857571,0.038788,-0.006622,-1.029160,0.040872,0.006417,0.002026,0.999162,0.002287,-0.040860,-0.002026,0.999977,0.006417,0.040874,-0.006329,0.999144,0.040860,-0.006417,-0.999144,-0.001203,0.001824,-0.027086,0.001605,0.007452,0.000922,0.000000,0.000000,0.000000,-1.000000,-1.000000
482148227.867535,0.038895,-0.010620,-1.032990,0.040881,0.006416,0.002054,0.999162,0.002314,-0.040869,-0.002054,0.999977,0.006416,0.040882,-0.006327,0.999144,0.040869,-0.006416,-0.999144,-0.002157,0.000801,-0.028093,0.008909,0.007387,0.000127,0.000000,0.000000,0.000000,-1.000000,-1.000000
482148227.877564,0.040955,-0.002640,-1.031036,0.040881,0.006416,0.002054,0.999162,0.002314,-0.040869,-0.002054,0.999977,0.006416,0.040882,-0.006327,0.999144,0.040869,-0.006416,-0.999144,-0.002157,0.000801,-0.028093,0.008909,0.007387,0.000127,0.000000,0.000000,0.000000,-1.000000,-1.000000
482148227.887542,0.039978,-0.002655,-1.031082,0.040905,0.006503,0.002074,0.999161,0.002338,-0.040893,-0.002074,0.999977,0.006503,0.040907,-0.006413,0.999142,0.040893,-0.006503,-0.999142,-0.002181,0.000888,-0.028095,0.007500,0.006230,0.003594,0.000000,0.000000,0.000000,-1.000000,-1.000000
482148227.897536,0.038773,-0.004623,-1.028214,0.040799,0.006620,0.002087,0.999165,0.002355,-0.040786,-0.002087,0.999976,0.006620,0.040801,-0.006530,0.999146,0.040786,-0.006620,-0.999146,-0.001892,-0.004000,-0.033844,0.005441,-0.001006,-0.002292,0.000000,0.000000,0.000000,-1.000000,-1.000000
482148227.907291,0.038773,-0.004623,-1.028214,0.040799,0.006491,0.002052,0.999165,0.002315,-0.040786,-0.002051,0.999977,0.006491,0.040801,-0.006402,0.999147,0.040786,-0.006491,-0.999147,0.000168,0.003851,-0.031890,-0.006593,0.002610,-0.004140,0.000000,0.000000,0.000000,-1.000000,-1.000000
482148227.917647,0.040939,-0.004639,-1.031982,0.040799,0.006491,0.002052,0.999165,0.002315,-0.040786,-0.002051,0.999977,0.006491,0.040801,-0.006402,0.999147,0.040786,-0.006491,-0.999147,0.000168,0.003851,-0.031890,-0.006593,0.002610,-0.004140,0.000000,0.000000,0.000000,-1.000000,-1.000000
482148227.927491,0.040939,-0.004639,-1.031982,0.040770,0.006402,0.002009,0.999166,0.002269,-0.040757,-0.002009,0.999977,0.006402,0.040771,-0.006315,0.999149,0.040757,-0.006402,-0.999149,-0.001985,0.001779,-0.029065,-0.001791,0.002563,-0.003889,0.000000,0.000000,0.000000,-1.000000,-1.000000
482148227.937314,0.039581,-0.007553,-1.026199,0.040799,0.006434,0.001986,0.999165,0.002247,-0.040787,-0.001986,0.999977,0.006434,0.040800,-0.006348,0.999147,0.040787,-0.006434,-0.999147,-0.002014,0.001811,-0.029066,0.005322,0.003747,-0.001186,0.000000,0.000000,0.000000,-1.000000,-1.000000
482148227.947507,0.041992,-0.003647,-1.032913,0.040799,0.006434,0.001986,0.999165,0.002247,-0.040787,-0.001986,0.999977,0.006434,0.040800,-0.006348,0.999147,0.040787,-0.006434,-0.999147,-0.002014,0.001811,-0.029066,0.005322,0.003747,-0.001186,0.000000,0.000000,-1.000000,-1.000000,-1.000000
482148227.957620,0.041824,-0.006592,-1.030930,0.040834,0.006399,0.001956,0.999164,0.002215,-0.040822,-0.001955,0.999978,0.006399,0.040835,-0.006314,0.999146,0.040822,-0.006399,-0.999146,0.000118,0.001760,-0.032836,0.003630,0.004057,-0.001176,0.000000,0.000000,-1.000000,-1.000000,-1.000000
482148227.967559,0.041656,-0.006561,-1.028015,0.040842,0.006473,0.001944,0.999164,0.002206,-0.040830,-0.001944,0.999977,0.006473,0.040843,-0.006388,0.999145,0.040830,-0.006473,-0.999145,-0.001249,-0.001080,-0.027054,0.009670,0.006416,-0.000894,23.366585,27.829369,-1.000000,-1.000000,-1.000000
482148227.977576,0.041946,-0.005630,-1.032883,0.040927,0.006478,0.001925,0.999160,0.002188,-0.040915,-0.001924,0.999977,0.006478,0.040928,-0.006394,0.999142,0.040915,-0.006478,-0.999142,0.000910,-0.000114,-0.031788,0.008392,0.006431,0.000214,23.366585,27.829369,-1.000000,-1.000000,-1.000000
482148227.987537,0.041916,-0.006622,-1.032867,0.040927,0.006478,0.001925,0.999160,0.002188,-0.040915,-0.001924,0.999977,0.006478,0.040928,-0.006394,0.999142,0.040915,-0.006478,-0.999142,0.000910,-0.000114,-0.031788,0.008392,0.006431,0.000214,23.366585,27.829369,-1.000000,-1.000000,-1.000000
482148227.997528,0.043503,-0.007507,-1.025970,0.040920,0.006566,0.001919,0.999161,0.002186,-0.040908,-0.001919,0.999977,0.006566,0.040921,-0.006482,0.999141,0.040908,-0.006566,-0.999141,0.000916,-0.000025,-0.031788,0.007386,0.001631,-0.003298,23.366585,27.829369,-1.000000,-1.000000,-1.000000
482148228.007480,0.039993,-0.003662,-1.032043,0.040979,0.006605,0.001938,0.999158,0.002207,-0.040967,-0.001938,0.999976,0.006605,0.040980,-0.006520,0.999139,0.040967,-0.006605,-0.999139,0.000980,0.000974,-0.033744,0.005842,0.001688,0.002495,23.366585,27.829369,-1.000000,-1.000000,-1.000000
482148228.017619,0.039993,-0.003662,-1.032043,0.040970,0.006673,0.001927,0.999159,0.002198,-0.040957,-0.001927,0.999976,0.006673,0.040971,-0.006588,0.999139,0.040957,-0.006673,-0.999139,0.000959,0.000050,-0.033729,0.009866,0.005189,-0.004392,23.366585,27.829369,-1.000000,-1.000000,-1.000000
482148228.027263,0.040710,-0.005585,-1.028091,0.040970,0.006673,0.001927,0.999159,0.002198,-0.040957,-0.001927,0.999976,0.006673,0.040971,-0.006588,0.999139,0.040957,-0.006673,-0.999139,0.000959,0.000050,-0.033729,0.009866,0.005189,-0.004392,23.370188,27.832973,-1.000000,-1.000000,-1.000000
482148228.037530,0.037628,-0.004608,-1.025391,0.040999,0.006742,0.001866,0.999157,0.002140,-0.040986,-0.001866,0.999976,0.006742,0.041000,-0.006660,0.999137,0.040986,-0.006742,-0.999137,-0.000993,0.003080,-0.032906,0.009865,0.000414,-0.004329,23.370188,27.832973,-1.000000,-1.000000,-1.000000
482148228.047534,0.038940,-0.002670,-1.030167,0.041014,0.006765,0.001805,0.999157,0.002081,-0.041001,-0.001805,0.999976,0.006765,0.041015,-0.006685,0.999136,0.041001,-0.006765,-0.999136,-0.001008,0.003103,-0.032907,0.002684,0.002821,-0.005908,23.370188,27.832973,-1.000000,-1.000000,-1.000000
482148228.057522,0.042755,-0.004578,-1.028961,0.041014,0.006765,0.001805,0.999157,0.002081,-0.041001,-0.001805,0.999976,0.006765,0.041015,-0.006685,0.999136,0.041001,-0.006765,-0.999136,-0.001008,0.003103,-0.032907,0.002684,0.002821,-0.005908,23.370188,27.832973,-1.000000,-1.000000,-1.000000
482148228.067528,0.038925,-0.005646,-1.031113,0.040957,0.006812,0.001836,0.999159,0.002114,-0.040944,-0.001836,0.999975,0.006812,0.040958,-0.006731,0.999138,0.040944,-0.006812,-0.999138,-0.003316,0.002204,-0.026252,0.004827,0.005234,-0.001130,23.370188,27.832973,-1.000000,-1.000000,-1.000000
482148228.077544,0.041870,-0.004608,-1.030960,0.040920,0.006771,0.001863,0.999161,0.002138,-0.040908,-0.001863,0.999975,0.006771,0.040921,-0.006689,0.999140,0.040908,-0.006771,-0.999140,-0.001967,0.004101,-0.031027,0.005898,0.000472,0.001339,23.373909,27.836693,-1.000000,-1.000000,-1.000000
482148228.087535,0.039871,-0.008621,-1.031982,0.040904,0.006709,0.001855,0.999161,0.002128,-0.040892,-0.001855,0.999976,0.006709,0.040905,-0.006627,0.999141,0.040892,-0.006709,-0.999141,-0.001967,0.001063,-0.031972,-0.001221,0.005253,-0.001444,23.373909,27.836693,-1.000000,-1.000000,-1.000000
482148228.097567,0.038177,-0.005707,-1.036026,0.040904,0.006709,0.001855,0.999161,0.002128,-0.040892,-0.001855,0.999976,0.006709,0.040905,-0.006627,0.999141,0.040892,-0.006709,-0.999141,-0.001967,0.001063,-0.031972,-0.001221,0.005253,-0.001444,23.373909,27.836693,-1.000000,-1.000000,-1.000000
482148228.107674,0.039902,-0.005630,-1.031052,0.040903,0.006731,0.001838,0.999161,0.002111,-0.040891,-0.001838,0.999976,0.006731,0.040904,-0.006650,0.999141,0.040891,-0.006731,-0.999141,-0.001966,0.001085,-0.031972,0.005021,0.000422,-0.004580,23.373909,27.836693,-1.000000,-1.000000,-1.000000
482148228.117776,0.037888,-0.004654,-1.030212,0.040903,0.006728,0.001851,0.999161,0.002125,-0.040891,-0.001851,0.999976,0.006728,0.040904,-0.006646,0.999141,0.040891,-0.006728,-0.999141,-0.001020,-0.001894,-0.032841,0.005693,-0.003083,0.004901,23.373909,27.836693,-1.000000,-1.000000,-1.000000
482148228.127344,0.037888,-0.004654,-1.030212,0.040771,0.006757,0.001879,0.999167,0.002152,-0.040759,-0.001878,0.999975,0.006757,0.040772,-0.006674,0.999146,0.040759,-0.006757,-0.999146,-0.002581,0.001050,-0.036880,0.003142,-0.005443,0.007149,23.377750,27.840534,-1.000000,-1.000000,-1.000000
482148228.137564,0.040817,-0.003616,-1.029099,0.040771,0.006757,0.001879,0.999167,0.002152,-0.040759,-0.001878,0.999975,0.006757,0.040772,-0.006674,0.999146,0.040759,-0.006757,-0.999146,-0.002581,0.001050,-0.036880,0.003142,-0.005443,0.007149,23.377750,27.840534,-1.000000,-1.000000,-1.000000
482148228.147537,0.039764,-0.002625,-1.027206,0.040659,0.006705,0.001969,0.999171,0.002239,-0.040646,-0.001969,0.999976,0.006705,0.040660,-0.006619,0.999151,0.040646,-0.006705,-0.999151,-0.002759,0.002051,-0.031061,0.000050,-0.001938,-0.002457,23.377750,27.840534,-1.000000,-1.000000,-1.000000
482148228.157555,0.036972,-0.005661,-1.031235,0.040685,0.006677,0.001929,0.999170,0.002199,-0.040673,-0.001929,0.999976,0.006677,0.040686,-0.006593,0.999150,0.040673,-0.006677,-0.999150,-0.002785,0.002023,-0.031062,-0.002033,0.005181,-0.008535,23.377750,27.840534,-1.000000,-1.000000,-1.000000
482148228.167619,0.039108,-0.007675,-1.035950,0.040685,0.006677,0.001929,0.999170,0.002199,-0.040673,-0.001929,0.999976,0.006677,0.040686,-0.006593,0.999150,0.040673,-0.006677,-0.999150,-0.002785,0.002023,-0.031062,-0.002033,0.005181,-0.008535,23.377750,27.840534,-1.000000,-1.000000,-1.000000
482148228.177554,0.036942,-0.008652,-1.032166,0.040692,0.006557,0.001937,0.999170,0.002202,-0.040680,-0.001937,0.999977,0.006557,0.040694,-0.006473,0.999151,0.040680,-0.006557,-0.999151,-0.000916,0.003933,-0.028056,0.003598,-0.000753,-0.001113,23.381964,27.844749,-1.000000,-1.000000,-1.000000
482148228.187537,0.043640,-0.008545,-1.028854,0.040578,0.006545,0.001974,0.999174,0.002238,-0.040566,-0.001974,0.999977,0.006545,0.040580,-0.006460,0.999155,0.040566,-0.006545,-0.999155,-0.003594,0.000884,-0.032079,-0.000429,0.001708,0.005693,23.381964,27.844749,-1.000000,-1.000000,-1.000000
482148228.197533,0.036835,-0.006638,-1.029282,0.040387,0.006614,0.001990,0.999182,0.002255,-0.040375,-0.001990,0.999976,0.006614,0.040389,-0.006528,0.999163,0.040375,-0.006614,-0.999163,-0.003433,-0.002038,-0.033003,0.008364,0.000417,0.000293,23.381964,27.844749,-1.000000,-1.000000,-1.000000
482148228.207470,0.042786,-0.009552,-1.031799,0.040387,0.006614,0.001990,0.999182,0.002255,-0.040375,-0.001990,0.999976,0.006614,0.040389,-0.006528,0.999163,0.040375,-0.006614,-0.999163,-0.003433,-0.002038,-0.033003,0.008364,0.000417,0.000293,23.381964,27.844749,-1.000000,-1.000000,-1.000000
482148228.217538,0.042618,-0.007523,-1.027954,0.040485,0.006691,0.001967,0.999178,0.002236,-0.040473,-0.001966,0.999976,0.006691,0.040487,-0.006606,0.999158,0.040473,-0.006691,-0.999158,0.003167,-0.001854,-0.029696,0.002592,0.008758,-0.004817,23.381964,27.844749,-1.000000,-1.000000,-1.000000
482148228.226896,0.042618,-0.007523,-1.027954,0.040469,0.006762,0.001959,0.999179,0.002231,-0.040457,-0.001959,0.999975,0.006762,0.040471,-0.006677,0.999158,0.040457,-0.006762,-0.999158,-0.003622,0.000124,-0.030123,0.008364,0.005189,0.000229,23.385580,27.848366,-1.000000,-1.000000,-1.000000
482148228.238327,0.037643,-0.008591,-1.027267,0.040531,0.006827,0.001925,0.999176,0.002200,-0.040519,-0.001925,0.999975,0.006827,0.040533,-0.006744,0.999155,0.040519,-0.006827,-0.999155,0.002267,-0.002725,-0.032644,0.000112,0.006388,-0.003740,23.385580,27.848366,-1.000000,-1.000000,-1.000000
482148228.247820,0.037643,-0.008591,-1.027267,0.040531,0.006827,0.001925,0.999176,0.002200,-0.040519,-0.001925,0.999975,0.006827,0.040533,-0.006744,0.999155,0.040519,-0.006827,-0.999155,0.002267,-0.002725,-0.032644,0.000112,0.006388,-0.003740,23.385580,27.848366,-1.000000,-1.000000,-1.000000
482148228.257499,0.041580,-0.003571,-1.025177,0.040529,0.006843,0.001950,0.999176,0.002225,-0.040517,-0.001950,0.999975,0.006843,0.040532,-0.006758,0.999155,0.040517,-0.006843,-0.999155,0.001246,0.000251,-0.030798,0.002397,-0.004343,-0.001128,23.385580,27.848366,-1.000000,-1.000000,-1.000000
482148228.267609,0.038071,-0.003693,-1.033142,0.040544,0.006898,0.001922,0.999176,0.002200,-0.040532,-0.001922,0.999974,0.006898,0.040546,-0.006814,0.999154,0.040532,-0.006898,-0.999154,0.001231,0.000306,-0.030799,0.009844,0.000369,-0.004329,23.385580,27.848366,-1.000000,-1.000000,-1.000000
482148228.277608,0.042938,-0.005615,-1.032822,0.040544,0.006898,0.001922,0.999176,0.002200,-0.040532,-0.001922,0.999974,0.006898,0.040546,-0.006814,0.999154,0.040532,-0.006898,-0.999154,0.001231,0.000306,-0.030799,0.009844,0.000369,-0.004329,23.385580,27.848366,-1.000000,-1.000000,-1.000000
482148228.287547,0.038925,-0.005646,-1.031113,0.040523,0.006879,0.001903,0.999177,0.002180,-0.040511,-0.001903,0.999975,0.006878,0.040525,-0.006796,0.999155,0.040511,-0.006878,-0.999155,0.001069,0.003308,-0.026022,0.002327,0.000437,-0.000021,23.387560,27.850346,-1.000000,-1.000000,-1.000000
482148228.297570,0.039658,-0.006592,-1.027161,0.040437,0.006868,0.001876,0.999180,0.002152,-0.040425,-0.001876,0.999975,0.006868,0.040439,-0.006786,0.999159,0.040425,-0.006868,-0.999159,-0.002355,0.003175,-0.033983,0.008361,0.001602,0.000277,23.387560,27.850346,-1.000000,-1.000000,-1.000000
482148228.307537,0.038757,-0.005615,-1.028198,0.040499,0.006832,0.001857,0.999178,0.002132,-0.040487,-0.001857,0.999975,0.006832,0.040501,-0.006751,0.999157,0.040487,-0.006832,-0.999157,-0.001562,0.001186,-0.031956,0.001177,0.006394,-0.001335,23.387560,27.850346,-1.000000,-1.000000,-1.000000
482148228.317625,0.043533,-0.002548,-1.024078,0.040499,0.006832,0.001857,0.999178,0.002132,-0.040487,-0.001857,0.999975,0.006832,0.040501,-0.006751,0.999157,0.040487,-0.006832,-0.999157,-0.001562,0.001186,-0.031956,0.001177,0.006394,-0.001335,23.387560,27.850346,-1.000000,-1.000000,-1.000000
482148228.327517,0.040924,-0.003632,-1.031036,0.040471,0.006844,0.001878,0.999179,0.002153,-0.040459,-0.001878,0.999975,0.006844,0.040473,-0.006762,0.999158,0.040459,-0.006844,-0.999158,-0.000801,0.000252,-0.028003,0.001043,0.002832,0.001056,23.387560,27.850346,-1.000000,-1.000000,-1.000000
482148228.336888,0.040924,-0.003632,-1.031036,0.040439,0.006870,0.001827,0.999180,0.002104,-0.040427,-0.001827,0.999975,0.006870,0.040440,-0.006791,0.999159,0.040427,-0.006870,-0.999159,-0.001669,0.001255,-0.029039,0.001042,0.002829,0.001056,23.389225,27.852009,-1.000000,-1.000000,-1.000000
482148228.347551,0.039612,-0.006577,-1.026199,0.040478,0.006804,0.001842,0.999179,0.002116,-0.040466,-0.001842,0.999975,0.006804,0.040479,-0.006724,0.999158,0.040466,-0.006804,-0.999158,0.003068,0.004256,-0.024921,0.004729,-0.001969,0.000136,23.389225,27.852009,-1.000000,-1.000000,-1.000000
482148228.357658,0.043793,-0.006577,-1.030807,0.040478,0.006804,0.001842,0.999179,0.002116,-0.040466,-0.001842,0.999975,0.006804,0.040479,-0.006724,0.999158,0.040466,-0.006804,-0.999158,0.003068,0.004256,-0.024921,0.004729,-0.001969,0.000136,23.389225,27.852009,-1.000000,-1.000000,-1.000000
482148228.367386,0.044693,-0.005554,-1.028824,0.040491,0.006838,0.001851,0.999178,0.002126,-0.040479,-0.001851,0.999975,0.006838,0.040493,-0.006757,0.999157,0.040479,-0.006838,-0.999157,-0.000867,0.000261,-0.027042,0.007071,0.006384,0.001321,23.389225,27.852009,-1.000000,-1.000000,-1.000000
482148228.377675,0.041565,-0.008545,-1.027039,0.040501,0.006837,0.001855,0.999178,0.002130,-0.040489,-0.001855,0.999975,0.006837,0.040502,-0.006756,0.999157,0.040489,-0.006837,-0.999157,-0.000877,0.000260,-0.027043,-0.003797,-0.001926,0.000867,23.389225,27.852009,-1.000000,-1.000000,-1.000000
482148228.387529,0.033005,-0.004730,-1.030502,0.040501,0.006837,0.001855,0.999178,0.002130,-0.040489,-0.001855,0.999975,0.006837,0.040502,-0.006756,0.999157,0.040489,-0.006837,-0.999157,-0.000877,0.000260,-0.027043,-0.003797,-0.001926,0.000867,23.390228,27.853012,-1.000000,-1.000000,-1.000000
482148228.397542,0.040695,-0.008575,-1.029037,0.040638,0.006814,0.001782,0.999172,0.002057,-0.040626,-0.001782,0.999975,0.006814,0.040639,-0.006736,0.999151,0.040626,-0.006814,-0.999151,0.004067,0.001260,-0.029673,0.007337,0.006347,-0.003364,23.390228,27.853012,-1.000000,-1.000000,-1.000000
482148228.407553,0.038788,-0.006622,-1.029160,0.040627,0.006910,0.001776,0.999173,0.002055,-0.040615,-0.001776,0.999975,0.006910,0.040628,-0.006832,0.999151,0.040615,-0.006910,-0.999151,0.000950,-0.001635,-0.027888,0.005865,-0.001961,0.001370,23.390228,27.853012,-1.000000,-1.000000,-1.000000
482148228.417526,0.042786,-0.011536,-1.032761,0.040453,0.006999,0.001797,0.999180,0.002079,-0.040441,-0.001797,0.999974,0.006999,0.040455,-0.006921,0.999157,0.040441,-0.006999,-0.999157,0.000254,-0.001576,-0.029880,0.005864,-0.001972,0.001370,23.390228,27.853012,-1.000000,-1.000000,-1.000000
482148228.426658,0.036942,-0.002670,-1.029327,0.040453,0.006999,0.001797,0.999180,0.002079,-0.040441,-0.001797,0.999974,0.006999,0.040455,-0.006921,0.999157,0.040441,-0.006999,-0.999157,0.000254,-0.001576,-0.029880,0.005864,-0.001972,0.001370,23.390228,27.853012,-1.000000,-1.000000,-1.000000
482148228.437609,0.038757,-0.005615,-1.028198,0.040434,0.007025,0.001785,0.999181,0.002068,-0.040422,-0.001785,0.999974,0.007025,0.040436,-0.006947,0.999158,0.040422,-0.007025,-0.999158,-0.001635,0.000403,-0.030002,0.002305,0.003998,-0.000070,23.391888,27.854671,-1.000000,-1.000000,-1.000000
482148228.447599,0.041550,-0.004562,-1.025162,0.040483,0.007193,0.001859,0.999178,0.002149,-0.040471,-0.001859,0.999972,0.007193,0.040485,-0.007111,0.999155,0.040471,-0.007193,-0.999155,0.002315,-0.004343,-0.033606,0.002850,-0.003062,0.011802,23.391888,27.854671,-1.000000,-1.000000,-1.000000
482148228.456877,0.041550,-0.004562,-1.025162,0.040434,0.007072,0.001857,0.999180,0.002142,-0.040422,-0.001857,0.999973,0.007072,0.040436,-0.006991,0.999158,0.040422,-0.007072,-0.999158,-0.003480,0.004402,-0.030170,-0.005950,0.006385,-0.004055,23.391888,27.854671,-1.000000,-1.000000,-1.000000
482148228.467493,0.043716,-0.005569,-1.028885,0.040434,0.007072,0.001857,0.999180,0.002142,-0.040422,-0.001857,0.999973,0.007072,0.040436,-0.006991,0.999158,0.040422,-0.007072,-0.999158,-0.003480,0.004402,-0.030170,-0.005950,0.006385,-0.004055,23.391888,27.854671,-1.000000,-1.000000,-1.000000
482148228.477478,0.042862,-0.006592,-1.031830,0.040389,0.006991,0.001898,0.999182,0.002179,-0.040377,-0.001898,0.999974,0.006991,0.040391,-0.006909,0.999160,0.040377,-0.006991,-0.999160,0.001173,0.002428,-0.026002,-0.000115,0.002807,-0.000179,23.391888,27.854671,-1.000000,-1.000000,-1.000000
482148228.487455,0.038757,-0.003632,-1.027267,0.040461,0.006943,0.001864,0.999179,0.002143,-0.040449,-0.001864,0.999974,0.006943,0.040463,-0.006862,0.999157,0.040449,-0.006943,-0.999157,0.003267,0.001373,-0.029727,0.002499,0.003962,-0.003583,23.391888,27.854671,-1.000000,-1.000000,-1.000000
482148228.497631,0.044632,-0.007523,-1.028809,0.040461,0.006943,0.001864,0.999179,0.002143,-0.040449,-0.001864,0.999974,0.006943,0.040463,-0.006862,0.999157,0.040449,-0.006943,-0.999157,0.003267,0.001373,-0.029727,0.002499,0.003962,-0.003583,23.391888,27.854671,-1.000000,-1.000000,-1.000000
482148228.507563,0.036987,-0.004669,-1.031250,0.040435,0.006941,0.001857,0.999180,0.002136,-0.040423,-0.001857,0.999974,0.006941,0.040437,-0.006860,0.999159,0.040423,-0.006941,-0.999159,0.002439,0.000349,-0.032671,0.004715,-0.001984,0.000135,23.391888,27.854671,-1.000000,-1.000000,-1.000000
482148228.517501,0.042816,-0.010559,-1.032761,0.040429,0.006894,0.001850,0.999181,0.002127,-0.040417,-0.001850,0.999975,0.006894,0.040430,-0.006814,0.999159,0.040417,-0.006894,-0.999159,-0.001659,0.003262,-0.028108,0.000011,0.007561,-0.002586,23.391888,27.854671,-1.000000,-1.000000,-1.000000
482148228.527427,0.040924,-0.003632,-1.031036,0.040461,0.006923,0.001864,0.999179,0.002142,-0.040449,-0.001864,0.999974,0.006923,0.040462,-0.006842,0.999158,0.040449,-0.006923,-0.999158,-0.003461,0.002254,-0.032092,0.003500,0.002790,0.000009,23.391888,27.854671,-1.000000,-1.000000,-1.000000
482148228.537492,0.043655,-0.007538,-1.028870,0.040461,0.006923,0.001864,0.999179,0.002142,-0.040449,-0.001864,0.999974,0.006923,0.040462,-0.006842,0.999158,0.040449,-0.006923,-0.999158,-0.003461,0.002254,-0.032092,0.003500,0.002790,0.000009,23.391888,27.854671,-1.000000,-1.000000,-1.000000
482148228.547431,0.038910,-0.001663,-1.029221,0.040494,0.007008,0.001922,0.999178,0.002204,-0.040482,-0.001922,0.999974,0.007008,0.040497,-0.006925,0.999156,0.040482,-0.007008,-0.999156,0.002334,-0.003551,-0.033605,0.001962,-0.000731,0.005850,23.391888,27.854671,-1.000000,-1.000000,-1.000000
482148228.557473,0.040161,-0.004700,-1.035919,0.040529,0.006970,0.001892,0.999177,0.002173,-0.040517,-0.001892,0.999974,0.006970,0.040531,-0.006887,0.999155,0.040517,-0.006970,-0.999155,0.000408,0.003338,-0.031882,0.004574,0.001613,0.002430,23.391888,27.854671,-1.000000,-1.000000,-1.000000
482148228.567452,0.040741,-0.002609,-1.027161,0.040553,0.007014,0.001907,0.999175,0.002190,-0.040541,-0.001907,0.999974,0.007014,0.040555,-0.006931,0.999153,0.040541,-0.007014,-0.999153,0.003114,-0.000524,-0.029716,0.004709,-0.000793,0.000119,23.391888,27.854671,-1.000000,-1.000000,-1.000000
482148228.577021,0.040741,-0.002609,-1.027161,0.040553,0.007014,0.001907,0.999175,0.002190,-0.040541,-0.001907,0.999974,0.007014,0.040555,-0.006931,0.999153,0.040541,-0.007014,-0.999153,0.003114,-0.000524,-0.029716,0.004709,-0.000793,0.000119,23.391888,27.854671,-1.000000,-1.000000,-1.000000
482148228.587054,0.040817,-0.005615,-1.030029,0.040476,0.006978,0.001917,0.999179,0.002198,-0.040464,-0.001917,0.999974,0.006978,0.040478,-0.006895,0.999157,0.040464,-0.006978,-0.999157,-0.000302,0.002278,-0.036763,0.012888,-0.003179,0.005276,23.391888,27.854671,-1.000000,-1.000000,-1.000000
482148228.597512,0.039703,-0.004608,-1.027191,0.040463,0.006943,0.001922,0.999179,0.002202,-0.040451,-0.001922,0.999974,0.006943,0.040465,-0.006860,0.999157,0.040451,-0.006943,-0.999157,0.000290,0.004334,-0.028003,0.004561,0.001609,0.002429,23.391888,27.854671,-1.000000,-1.000000,-1.000000
482148228.607053,0.039246,-0.002731,-1.035995,0.040463,0.006943,0.001922,0.999179,0.002202,-0.040451,-0.001922,0.999974,0.006943,0.040465,-0.006860,0.999157,0.040451,-0.006943,-0.999157,0.000290,0.004334,-0.028003,0.004561,0.001609,0.002429,23.391888,27.854671,-1.000000,-1.000000,-1.000000
482148228.616661,0.038818,-0.005630,-1.029175,0.040541,0.006911,0.001962,0.999176,0.002240,-0.040529,-0.001962,0.999974,0.006910,0.040543,-0.006825,0.999154,0.040529,-0.006910,-0.999154,0.000289,0.001295,-0.030875,-0.005038,0.006413,0.000692,23.391888,27.854671,-1.000000,-1.000000,-1.000000
482148228.627022,0.038895,-0.006638,-1.031097,0.040528,0.006922,0.001956,0.999176,0.002235,-0.040516,-0.001956,0.999974,0.006922,0.040531,-0.006837,0.999155,0.040516,-0.006922,-0.999155,-0.000813,0.002314,-0.028036,0.009588,0.001554,-0.000833,23.391888,27.854671,-1.000000,-1.000000,-1.000000
482148228.637433,0.038910,-0.003662,-1.030167,0.040319,0.006819,0.001918,0.999185,0.002191,-0.040307,-0.001918,0.999975,0.006819,0.040321,-0.006736,0.999164,0.040307,-0.006819,-0.999164,-0.001489,0.001188,-0.030011,-0.001354,-0.003169,-0.000164,23.391888,27.854671,-1.000000,-1.000000,-1.000000
482148228.647048,0.034851,-0.004669,-1.028458,0.040319,0.006819,0.001918,0.999185,0.002191,-0.040307,-0.001918,0.999975,0.006819,0.040321,-0.006736,0.999164,0.040307,-0.006819,-0.999164,-0.001489,0.001188,-0.030011,-0.001354,-0.003169,-0.000164,23.391888,27.854671,-1.000000,-1.000000,-1.000000
482148228.657433,0.038895,-0.008636,-1.032043,0.040281,0.006816,0.001884,0.999187,0.002157,-0.040270,-0.001884,0.999975,0.006816,0.040283,-0.006734,0.999166,0.040270,-0.006816,-0.999166,-0.001375,0.000178,-0.031932,0.003745,-0.002042,-0.004613,23.391888,27.854671,-1.000000,-1.000000,-1.000000
482148228.667433,0.035858,0.000320,-1.026535,0.040228,0.006826,0.001899,0.999189,0.002172,-0.040217,-0.001899,0.999975,0.006826,0.040230,-0.006744,0.999168,0.040217,-0.006826,-0.999168,-0.001307,0.003163,-0.030999,0.002264,0.003971,-0.000071,23.391888,27.854671,-1.000000,-1.000000,-1.000000
482148228.677495,0.042542,-0.004547,-1.025101,0.040099,0.006806,0.001910,0.999194,0.002181,-0.040088,-0.001910,0.999975,0.006806,0.040102,-0.006724,0.999173,0.040088,-0.006806,-0.999173,-0.005237,0.002137,-0.029285,0.003402,0.002776,0.001179,23.391888,27.854671,-1.000000,-1.000000,-1.000000
482148228.687431,0.041138,-0.004684,-1.035873,0.040099,0.006806,0.001910,0.999194,0.002181,-0.040088,-0.001910,0.999975,0.006806,0.040102,-0.006724,0.999173,0.040088,-0.006806,-0.999173,-0.005237,0.002137,-0.029285,0.003402,0.002776,0.001179,23.391888,27.854671,-1.000000,-1.000000,-1.000000
482148228.697212,0.041138,-0.004684,-1.035873,0.039935,0.006682,0.001914,0.999200,0.002179,-0.039923,-0.001914,0.999976,0.006682,0.039937,-0.006600,0.999180,0.039923,-0.006682,-0.999180,-0.004065,0.007003,-0.027355,0.001115,0.000370,-0.001258,23.391888,27.854671,-1.000000,-1.000000,-1.000000
482148228.707505,0.046829,-0.002563,-1.030685,0.040007,0.006757,0.001881,0.999198,0.002150,-0.039995,-0.001881,0.999975,0.006757,0.040009,-0.006677,0.999177,0.039995,-0.006757,-0.999177,0.002546,0.002210,-0.025924,0.013323,0.006267,-0.003052,23.391888,27.854671,-1.000000,-1.000000,-1.000000
482148228.717449,0.039703,-0.004608,-1.027191,0.040007,0.006757,0.001881,0.999198,0.002150,-0.039995,-0.001881,0.999975,0.006757,0.040009,-0.006677,0.999177,0.039995,-0.006757,-0.999177,0.002546,0.002210,-0.025924,0.013323,0.006267,-0.003052,23.391888,27.854671,-1.000000,-1.000000,-1.000000
482148228.727517,0.041748,-0.005585,-1.029007,0.039980,0.006831,0.001940,0.999198,0.002211,-0.039968,-0.001939,0.999975,0.006831,0.039982,-0.006748,0.999178,0.039968,-0.006831,-0.999178,0.001170,0.002146,-0.036696,0.004602,-0.006785,0.001369,23.399855,27.862640,-1.000000,-1.000000,-1.000000
482148228.737506,0.036072,-0.001709,-1.031342,0.040070,0.006726,0.001938,0.999195,0.002205,-0.040058,-0.001938,0.999976,0.006726,0.040072,-0.006643,0.999175,0.040058,-0.006726,-0.999175,0.006771,0.004162,-0.031511,0.000771,-0.003151,0.004646,23.399855,27.862640,-1.000000,-1.000000,-1.000000
482148228.747322,0.042786,-0.005585,-1.029907,0.040037,0.006652,0.001973,0.999196,0.002238,-0.040026,-0.001973,0.999976,0.006652,0.040040,-0.006567,0.999177,0.040026,-0.006652,-0.999177,0.001722,0.001067,-0.029830,-0.000175,0.005166,-0.000214,23.402260,27.865044,-1.000000,-1.000000,-1.000000
482148228.757457,0.038956,-0.007645,-1.033035,0.040037,0.006652,0.001973,0.999196,0.002238,-0.040026,-0.001973,0.999976,0.006652,0.040040,-0.006567,0.999177,0.040026,-0.006652,-0.999177,0.001722,0.001067,-0.029830,-0.000175,0.005166,-0.000214,23.402260,27.865044,-1.000000,-1.000000,-1.000000
482148228.767471,0.040848,-0.006607,-1.030991,0.039956,0.006540,0.001967,0.999199,0.002226,-0.039945,-0.001967,0.999977,0.006540,0.039958,-0.006456,0.999180,0.039945,-0.006540,-0.999180,-0.003873,0.004831,-0.032161,-0.000114,0.006343,-0.001401,23.402260,27.865044,-1.000000,-1.000000,-1.000000
482148228.777621,0.044601,-0.004547,-1.026901,0.040010,0.006535,0.002039,0.999197,0.002299,-0.039999,-0.002039,0.999977,0.006534,0.040013,-0.006448,0.999178,0.039999,-0.006534,-0.999178,0.002787,0.000950,-0.030729,-0.009909,-0.000755,0.000535,23.402260,27.865044,-1.000000,-1.000000,-1.000000
482148228.787568,0.037018,-0.003677,-1.031265,0.040010,0.006535,0.002039,0.999197,0.002299,-0.039999,-0.002039,0.999977,0.006534,0.040013,-0.006448,0.999178,0.039999,-0.006534,-0.999178,0.002787,0.000950,-0.030729,-0.009909,-0.000755,0.000535,23.402260,27.865044,-1.000000,-1.000000,-1.000000
482148228.796581,0.041794,-0.005600,-1.029968,0.040022,0.006545,0.002011,0.999197,0.002271,-0.040011,-0.002011,0.999977,0.006545,0.040025,-0.006459,0.999178,0.040011,-0.006545,-0.999178,-0.001055,-0.001100,-0.033857,0.004851,0.007495,-0.003508,23.402260,27.865044,-1.000000,-1.000000,-1.000000
482148228.807502,0.039841,-0.003632,-1.029144,0.040131,0.006547,0.002008,0.999192,0.002269,-0.040120,-0.002008,0.999977,0.006547,0.040133,-0.006461,0.999173,0.040120,-0.006547,-0.999173,0.004482,0.001999,-0.027728,0.004516,-0.000805,0.002460,23.404728,27.867512,-1.000000,-1.000000,-1.000000
482148228.817706,0.039841,-0.003632,-1.029144,0.040039,0.006534,0.002051,0.999196,0.002311,-0.040027,-0.002051,0.999977,0.006534,0.040041,-0.006447,0.999177,0.040027,-0.006534,-0.999177,-0.003009,0.002857,-0.032088,0.007936,-0.001987,0.006178,23.404728,27.867512,-1.000000,-1.000000,-1.000000
482148228.827458,0.041733,0.000397,-1.026184,0.040039,0.006534,0.002051,0.999196,0.002311,-0.040027,-0.002051,0.999977,0.006534,0.040041,-0.006447,0.999177,0.040027,-0.006534,-0.999177,-0.003009,0.002857,-0.032088,0.007936,-0.001987,0.006178,23.404728,27.867512,-1.000000,-1.000000,-1.000000
482148228.837526,0.035889,-0.006668,-1.030304,0.040078,0.006373,0.002111,0.999194,0.002365,-0.040067,-0.002111,0.999977,0.006373,0.040081,-0.006283,0.999177,0.040067,-0.006373,-0.999177,-0.000226,0.002741,-0.029968,-0.000056,0.003942,-0.002541,23.404728,27.867512,-1.000000,-1.000000,-1.000000
482148228.847588,0.038040,-0.004684,-1.033127,0.040087,0.006387,0.002116,0.999194,0.002370,-0.040076,-0.002115,0.999977,0.006387,0.040090,-0.006297,0.999176,0.040076,-0.006387,-0.999176,-0.000235,0.002756,-0.029968,-0.001598,-0.000774,0.003316,23.404728,27.867512,-1.000000,-1.000000,-1.000000
482148228.857543,0.041763,-0.004593,-1.029022,0.040012,0.006280,0.002130,0.999197,0.002379,-0.040000,-0.002130,0.999978,0.006280,0.040014,-0.006190,0.999180,0.040000,-0.006280,-0.999180,-0.004112,-0.000388,-0.031124,0.001211,0.003922,-0.003649,23.406290,27.869076,-1.000000,-1.000000,-1.000000
482148228.867487,0.041687,-0.007553,-1.028992,0.040012,0.006280,0.002130,0.999197,0.002379,-0.040000,-0.002130,0.999978,0.006280,0.040014,-0.006190,0.999180,0.040000,-0.006280,-0.999180,-0.004112,-0.000388,-0.031124,0.001211,0.003922,-0.003649,23.406290,27.869076,-1.000000,-1.000000,-1.000000
482148228.877628,0.043839,-0.004593,-1.030838,0.039924,0.006267,0.002081,0.999200,0.002330,-0.039912,-0.002081,0.999978,0.006267,0.039926,-0.006179,0.999184,0.039912,-0.006267,-0.999184,-0.001872,0.001582,-0.033943,0.006177,-0.003285,-0.005645,23.406290,27.869076,-1.000000,-1.000000,-1.000000
482148228.887641,0.039963,-0.004654,-1.032028,0.039986,0.006288,0.002035,0.999198,0.002285,-0.039974,-0.002035,0.999978,0.006288,0.039988,-0.006201,0.999181,0.039974,-0.006288,-0.999181,0.001713,-0.001265,-0.029811,0.004633,-0.003226,0.000148,23.406290,27.869076,-1.000000,-1.000000,-1.000000
482148228.897678,0.042542,-0.004547,-1.025101,0.039986,0.006288,0.002035,0.999198,0.002285,-0.039974,-0.002035,0.999978,0.006288,0.039988,-0.006201,0.999181,0.039974,-0.006288,-0.999181,0.001713,-0.001265,-0.029811,0.004633,-0.003226,0.000148,23.406290,27.869076,-1.000000,-1.000000,-1.000000
482148228.907505,0.039948,-0.003647,-1.031082,0.039962,0.006302,0.002051,0.999199,0.002301,-0.039950,-0.002051,0.999978,0.006302,0.039964,-0.006215,0.999182,0.039950,-0.006302,-0.999182,0.001737,-0.001251,-0.029810,0.001009,-0.002017,-0.000056,23.407518,27.870304,-1.000000,-1.000000,-1.000000
482148228.917642,0.039948,-0.003647,-1.031082,0.039966,0.006286,0.002146,0.999199,0.002395,-0.039955,-0.002146,0.999978,0.006286,0.039969,-0.006195,0.999182,0.039955,-0.006286,-0.999182,0.000008,0.001632,-0.032846,0.008990,0.001603,0.008534,23.407518,27.870304,-1.000000,-1.000000,-1.000000
482148228.927568,0.043823,-0.005585,-1.030823,0.039994,0.006307,0.002151,0.999197,0.002401,-0.039983,-0.002151,0.999978,0.006307,0.039997,-0.006216,0.999180,0.039983,-0.006307,-0.999180,0.002559,0.001760,-0.025920,0.004558,0.002755,0.001240,23.407518,27.870304,-1.000000,-1.000000,-1.000000
482148228.937492,0.042892,-0.005600,-1.031845,0.039994,0.006307,0.002151,0.999197,0.002401,-0.039983,-0.002151,0.999978,0.006307,0.039997,-0.006216,0.999180,0.039983,-0.006307,-0.999180,0.002559,0.001760,-0.025920,0.004558,0.002755,0.001240,23.407518,27.870304,-1.000000,-1.000000,-1.000000
482148228.947564,0.041016,-0.001663,-1.032013,0.039954,0.006292,0.002181,0.999199,0.002431,-0.039942,-0.002181,0.999978,0.006292,0.039957,-0.006200,0.999182,0.039942,-0.006292,-0.999182,0.000005,0.002645,-0.031900,0.002007,-0.003183,0.003536,23.407518,27.870304,-1.000000,-1.000000,-1.000000
482148228.957561,0.039795,-0.005615,-1.029114,0.039963,0.006256,0.002239,0.999198,0.002487,-0.039952,-0.002239,0.999978,0.006256,0.039967,-0.006161,0.999182,0.039952,-0.006256,-0.999182,0.003871,0.000671,-0.031641,-0.004095,-0.003170,0.006732,23.408308,27.871094,-1.000000,-1.000000,-1.000000
482148228.967734,0.038895,-0.008636,-1.032043,0.040043,0.006269,0.002232,0.999195,0.002481,-0.040032,-0.002232,0.999978,0.006269,0.040047,-0.006174,0.999179,0.040032,-0.006269,-0.999179,0.000984,0.004606,-0.032834,0.009524,0.005075,0.001455,23.408308,27.871094,-1.000000,-1.000000,-1.000000
482148228.977620,0.039886,-0.003647,-1.030106,0.040043,0.006269,0.002232,0.999195,0.002481,-0.040032,-0.002232,0.999978,0.006269,0.040047,-0.006174,0.999179,0.040032,-0.006269,-0.999179,0.000984,0.004606,-0.032834,0.009524,0.005075,0.001455,23.408308,27.871094,-1.000000,-1.000000,-1.000000
482148228.987525,0.037750,-0.010590,-1.030136,0.040040,0.006285,0.002220,0.999195,0.002470,-0.040029,-0.002220,0.999978,0.006285,0.040043,-0.006191,0.999179,0.040029,-0.006285,-0.999179,-0.000234,0.000670,-0.029935,0.003686,0.001487,-0.002325,23.408308,27.871094,-1.000000,-1.000000,-1.000000
482148228.997525,0.044037,-0.006638,-1.035660,0.039952,0.006325,0.002224,0.999199,0.002475,-0.039941,-0.002224,0.999978,0.006325,0.039956,-0.006231,0.999182,0.039941,-0.006325,-0.999182,-0.000054,0.002678,-0.030924,0.004762,-0.004467,0.000159,23.408308,27.871094,-1.000000,-1.000000,-1.000000
482148229.006801,0.037872,-0.007614,-1.031158,0.039952,0.006325,0.002224,0.999199,0.002475,-0.039941,-0.002224,0.999978,0.006325,0.039956,-0.006231,0.999182,0.039941,-0.006325,-0.999182,-0.000054,0.002678,-0.030924,0.004762,-0.004467,0.000159,23.407757,27.870541,-1.000000,-1.000000,-1.000000
482148229.017650,0.041733,-0.007568,-1.029953,0.039972,0.006363,0.002239,0.999198,0.002491,-0.039960,-0.002239,0.999977,0.006363,0.039975,-0.006268,0.999181,0.039960,-0.006363,-0.999181,-0.000074,0.002716,-0.030925,0.005766,0.005108,0.003609,23.407757,27.870541,-1.000000,-1.000000,-1.000000
482148229.027713,0.041733,-0.007568,-1.029953,0.039983,0.006520,0.002253,0.999198,0.002512,-0.039972,-0.002253,0.999976,0.006520,0.039987,-0.006424,0.999180,0.039972,-0.006520,-0.999180,0.004065,-0.000118,-0.036480,0.002081,-0.006802,0.004751,23.407757,27.870541,-1.000000,-1.000000,-1.000000
482148229.037497,0.042755,-0.006577,-1.029892,0.039916,0.006531,0.002257,0.999200,0.002516,-0.039904,-0.002257,0.999976,0.006531,0.039920,-0.006435,0.999182,0.039904,-0.006531,-0.999182,-0.002032,-0.001083,-0.031976,0.002415,-0.000889,-0.001185,23.407757,27.870541,-1.000000,-1.000000,-1.000000
482148229.047592,0.040680,-0.004593,-1.027145,0.039916,0.006531,0.002257,0.999200,0.002516,-0.039904,-0.002257,0.999976,0.006531,0.039920,-0.006435,0.999182,0.039904,-0.006531,-0.999182,-0.002032,-0.001083,-0.031976,0.002415,-0.000889,-0.001185,23.407757,27.870541,-1.000000,-1.000000,-1.000000
482148229.057614,0.040070,-0.004669,-1.033966,0.039990,0.006588,0.002168,0.999198,0.002430,-0.039979,-0.002168,0.999976,0.006588,0.039994,-0.006496,0.999179,0.039979,-0.006588,-0.999179,0.002776,0.000011,-0.030713,0.006104,0.002667,-0.002216,23.407757,27.870541,-1.000000,-1.000000,-1.000000
482148229.067542,0.035889,-0.004669,-1.029373,0.039988,0.006592,0.002210,0.999198,0.002472,-0.039977,-0.002210,0.999976,0.006592,0.039992,-0.006498,0.999179,0.039977,-0.006592,-0.999179,0.002779,0.000015,-0.030713,-0.002884,-0.004375,0.006810,23.409315,27.872101,-1.000000,-1.000000,-1.000000
482148229.077795,0.039001,-0.008652,-1.033981,0.039950,0.006588,0.002221,0.999199,0.002482,-0.039939,-0.002221,0.999976,0.006588,0.039954,-0.006494,0.999180,0.039939,-0.006588,-0.999180,0.000741,0.001995,-0.027965,0.002281,-0.005642,0.001221,23.409315,27.872101,-1.000000,-1.000000,-1.000000
482148229.087553,0.039658,-0.006592,-1.027161,0.039935,0.006530,0.002197,0.999200,0.002456,-0.039923,-0.002197,0.999976,0.006530,0.039938,-0.006437,0.999181,0.039923,-0.006530,-0.999181,0.000146,0.001861,-0.034785,0.000063,0.001498,-0.002514,23.409315,27.872101,-1.000000,-1.000000,-1.000000
482148229.097522,0.042053,-0.003647,-1.033875,0.039877,0.006525,0.002159,0.999202,0.002417,-0.039865,-0.002159,0.999976,0.006524,0.039880,-0.006433,0.999184,0.039865,-0.006524,-0.999184,-0.003977,0.001855,-0.030189,0.002543,0.005055,-0.003607,23.409315,27.872101,-1.000000,-1.000000,-1.000000
482148229.107465,0.041718,-0.006577,-1.028992,0.039810,0.006513,0.002167,0.999205,0.002424,-0.039799,-0.002167,0.999976,0.006513,0.039814,-0.006422,0.999187,0.039799,-0.006513,-0.999187,-0.000141,-0.000079,-0.027974,0.000197,0.000278,-0.004841,23.409315,27.872101,-1.000000,-1.000000,-1.000000
482148229.117573,0.039139,-0.004700,-1.035004,0.039810,0.006513,0.002167,0.999205,0.002424,-0.039799,-0.002167,0.999976,0.006513,0.039814,-0.006422,0.999187,0.039799,-0.006513,-0.999187,-0.000141,-0.000079,-0.027974,0.000197,0.000278,-0.004841,23.411922,27.874706,-1.000000,-1.000000,-1.000000
482148229.127537,0.035950,-0.006668,-1.031281,0.039807,0.006523,0.002176,0.999205,0.002434,-0.039796,-0.002176,0.999976,0.006523,0.039811,-0.006431,0.999187,0.039796,-0.006523,-0.999187,-0.000138,-0.000069,-0.027974,-0.000261,-0.000871,0.003376,23.411922,27.874706,-1.000000,-1.000000,-1.000000
482148229.137652,0.038864,-0.003647,-1.029205,0.039864,0.006576,0.002234,0.999202,0.002494,-0.039852,-0.002234,0.999976,0.006576,0.039868,-0.006482,0.999184,0.039852,-0.006576,-0.999184,0.001865,-0.000001,-0.029808,0.004569,-0.002085,0.003643,23.411922,27.874706,-1.000000,-1.000000,-1.000000
482148229.147261,0.038864,-0.003647,-1.029205,0.039875,0.006580,0.002227,0.999202,0.002488,-0.039864,-0.002227,0.999976,0.006580,0.039879,-0.006486,0.999183,0.039864,-0.006580,-0.999183,-0.000725,0.001880,-0.035820,0.006108,0.006212,-0.002262,23.411922,27.874706,-1.000000,-1.000000,-1.000000
482148229.157758,0.037720,-0.005615,-1.027298,0.039875,0.006580,0.002227,0.999202,0.002488,-0.039864,-0.002227,0.999976,0.006580,0.039879,-0.006486,0.999183,0.039864,-0.006580,-0.999183,-0.000725,0.001880,-0.035820,0.006108,0.006212,-0.002262,23.411922,27.874706,-1.000000,-1.000000,-1.000000
482148229.167442,0.040771,-0.005600,-1.029068,0.039715,0.006583,0.002253,0.999208,0.002513,-0.039704,-0.002253,0.999976,0.006583,0.039720,-0.006488,0.999190,0.039704,-0.006583,-0.999190,-0.000840,0.002936,-0.030016,0.002349,0.005051,-0.000092,23.414616,27.877399,-1.000000,-1.000000,-1.000000
482148229.177540,0.036972,-0.005661,-1.031235,0.039778,0.006600,0.002192,0.999206,0.002453,-0.039767,-0.002192,0.999976,0.006600,0.039782,-0.006507,0.999187,0.039767,-0.006600,-0.999187,-0.000903,0.002953,-0.030018,0.000268,0.006202,-0.006090,23.414616,27.877399,-1.000000,-1.000000,-1.000000
482148229.187473,0.038742,-0.002625,-1.026306,0.039778,0.006600,0.002192,0.999206,0.002453,-0.039767,-0.002192,0.999976,0.006600,0.039782,-0.006507,0.999187,0.039767,-0.006600,-0.999187,-0.000903,0.002953,-0.030018,0.000268,0.006202,-0.006090,23.414616,27.877399,-1.000000,-1.000000,-1.000000
482148229.197573,0.042801,-0.004593,-1.029922,0.039775,0.006593,0.002222,0.999206,0.002482,-0.039764,-0.002222,0.999976,0.006593,0.039779,-0.006499,0.999187,0.039764,-0.006593,-0.999187,0.001008,0.000993,-0.029881,0.006039,0.005024,-0.001075,23.414616,27.877399,-1.000000,-1.000000,-1.000000
482148229.207529,0.038910,-0.003662,-1.030167,0.039728,0.006559,0.002237,0.999208,0.002495,-0.039717,-0.002237,0.999976,0.006559,0.039733,-0.006465,0.999189,0.039717,-0.006559,-0.999189,-0.002745,0.000898,-0.032045,-0.001477,0.006288,0.003217,23.414616,27.877399,-1.000000,-1.000000,-1.000000
482148229.217549,0.042770,-0.001587,-1.028015,0.039838,0.006466,0.002260,0.999203,0.002516,-0.039826,-0.002260,0.999977,0.006466,0.039841,-0.006371,0.999186,0.039826,-0.006466,-0.999186,0.002975,0.001873,-0.030737,0.002412,0.003844,-0.001247,23.416250,27.879036,-1.000000,-1.000000,-1.000000
